trial,right_eye,left_eye,disparity,test_eye,transient_counts,cdt,mdt,dtstd,latency,press_timing,release_timing,key_press_list
1,lsn.png,testls.png,cross,right,14,9.25434136390686,1.3220487662724085,0.6758993536182196,2.25673508644104,"[ 2.25673509  9.83273697 13.28051782 14.67239094 18.31253815 22.31289387
 26.32069206]","[ 2.71001506 11.41402102 14.12612891 16.13417697 19.43006206 23.36609316
 29.06234908]","[0.453279972076416, 1.5812840461730957, 0.8456110954284668, 1.4617860317230225, 1.1175239086151123, 1.053199291229248, 2.741657018661499]"
2,lst.png,testls.png,uncross,right,16,4.8030359745025635,0.6003794968128204,0.37528420687541675,3.6151468753814697,"[ 3.61514688  5.27124095  8.2553339  16.247576   19.20751405 22.59943891
 26.70366311 29.52735472]","[ 3.78070974  5.81263304  8.53269601 17.052634   19.38882875 23.95691586
 27.46891212 30.23697495]","[0.16556286811828613, 0.5413920879364014, 0.2773621082305908, 0.8050580024719238, 0.18131470680236816, 1.3574769496917725, 0.7652490139007568, 0.7096202373504639]"
3,lst.png,testls.png,uncross,right,16,5.315964460372925,0.6644955575466156,0.35148753237085884,2.735010862350464,"[ 2.73501086  4.95886207 10.54311275 14.77526379 16.49500203 20.45520687
 24.98318791 27.359236  ]","[ 3.05250096  5.7884469  10.74055171 15.71643472 17.6044929  21.51676798
 25.61276269 27.58888888]","[0.3174901008605957, 0.8295848369598389, 0.19743895530700684, 0.9411709308624268, 1.1094908714294434, 1.061561107635498, 0.6295747756958008, 0.22965288162231445]"
4,testls.png,lst.png,cross,left,28,7.517718315124512,0.5369798796517509,0.3036634170626594,4.807015895843506,"[ 4.8070159   8.47895098  9.52684402 11.00697398 13.70304799 16.0711031
 17.63098788 19.90296507 20.90302396 22.88712597 26.1272049  27.90320992
 29.207165   29.89503503]","[ 5.66037583  8.98054099  9.85249114 11.28452682 14.51658392 16.52455401
 18.2445569  20.12460876 21.372679   24.19669199 26.86053205 28.45273685
 29.30874085 30.18875289]","[0.8533599376678467, 0.5015900135040283, 0.32564711570739746, 0.27755284309387207, 0.8135359287261963, 0.45345091819763184, 0.6135690212249756, 0.22164368629455566, 0.46965503692626953, 1.3095660209655762, 0.7333271503448486, 0.5495269298553467, 0.10157585144042969, 0.2937178611755371]"
5,testls.png,lst.png,cross,left,22,8.517831325531006,0.7743483023210005,0.6240652700121488,2.9508891105651855,"[ 2.95088911  4.05481815  6.52694201  9.17497301 10.97502708 11.82290316
 13.5190711  16.19098401 20.21538305 25.39115405 29.16731501]","[ 3.34054422  4.78091121  7.07653713 10.02839923 11.05255604 12.00462317
 13.79655004 16.75689411 22.51670504 26.876755   30.27681589]","[0.38965511322021484, 0.726093053817749, 0.5495951175689697, 0.8534262180328369, 0.0775289535522461, 0.18172001838684082, 0.2774789333343506, 0.5659101009368896, 2.3013219833374023, 1.4856009483337402, 1.1095008850097656]"
6,testls.png,lst.png,cross,left,22,5.829790353775024,0.5299809412522749,0.25538883122708655,4.206913948059082,"[ 4.20691395  7.50276709  9.79116106 13.28714204 15.38306999 18.26304817
 20.09503984 22.59098411 24.59914112 27.30315995 28.26309299]","[ 4.92441988  8.04443502 10.08449984 13.66853905 15.85256886 18.87659407
 20.44465613 22.81272697 25.02072477 27.9255321  29.46061397]","[0.717505931854248, 0.5416679382324219, 0.2933387756347656, 0.381397008895874, 0.469498872756958, 0.6135458946228027, 0.34961628913879395, 0.22174286842346191, 0.4215836524963379, 0.6223721504211426, 1.1975209712982178]"
7,testls.png,lsn.png,uncross,left,16,8.908522605895996,1.1135653257369995,0.6544500941273315,2.5107948780059814,"[ 2.51079488  5.91883302 10.46298313 15.42314887 19.85509205 22.63907123
 24.50307703 30.26322293]","[ 4.0444262   6.42044401 11.99634027 16.76455307 20.93266821 23.14874792
 26.77276611 30.40479994]","[1.5336313247680664, 0.5016109943389893, 1.5333571434020996, 1.3414041996002197, 1.0775761604309082, 0.5096766948699951, 2.2696890830993652, 0.14157700538635254]"
8,lst.png,testls.png,uncross,right,12,3.832296848297119,0.6387161413828532,0.34221706813192604,6.01521897315979,[ 6.01521897  6.80689907 15.81534123 19.33518219 23.55927396 29.59963608],[ 6.30051422  7.61242008 16.95667791 19.45272827 24.3488059  30.29270196],"[0.2852952480316162, 0.8055210113525391, 1.1413366794586182, 0.11754608154296875, 0.789531946182251, 0.693065881729126]"
9,testls.png,lsn.png,uncross,left,14,9.174420833587646,1.310631547655378,0.9416755173709234,3.3671090602874756,"[ 3.36710906  5.19879699  7.95114112 10.31912494 16.79920983 21.91919303
 24.89521289]","[ 4.22047877  6.12458992  8.51660895 13.89267302 18.00450706 22.9325521
 25.93279886]","[0.8533697128295898, 0.925792932510376, 0.5654678344726562, 3.5735480785369873, 1.2052972316741943, 1.0133590698242188, 1.037585973739624]"
10,lst.png,testls.png,uncross,right,18,4.700029134750366,0.5222254594167074,0.25239165334356006,4.463242053985596,"[ 4.46324205  7.31109285  9.63092303 13.93525887 16.12696075 17.5194149
 21.28722191 23.87923288 25.63922   ]","[ 4.93238187  8.14054704 10.28712392 14.5804739  16.26867509 18.04485989
 22.18077374 24.27687812 25.78088284]","[0.46913981437683105, 0.8294541835784912, 0.6562008857727051, 0.6452150344848633, 0.14171433448791504, 0.5254449844360352, 0.8935518264770508, 0.3976452350616455, 0.1416628360748291]"
11,lsn.png,testls.png,cross,right,18,8.43500804901123,0.9372231165568033,0.32250707256437827,1.7112293243408203,"[ 1.71122932  4.68699813  8.45516801 12.18331313 14.09507608 18.66322517
 23.05545807 27.68727112 29.84722519]","[ 3.06851315  5.28454304  9.3485682  13.08445525 15.53252506 19.46183515
 24.33277106 28.34200716 30.3647542 ]","[1.3572838306427002, 0.5975449085235596, 0.8934001922607422, 0.9011421203613281, 1.4374489784240723, 0.7986099720001221, 1.277312994003296, 0.6547360420227051, 0.5175290107727051]"
12,lsn.png,testls.png,cross,right,22,5.964287519454956,0.5422079563140869,0.24297439129097578,2.070862054824829,"[ 2.07086205  3.60678482  5.35092402  7.63115692 12.01520991 13.4310379
 17.80714393 20.39135289 22.47898579 24.42328691 28.55144215]","[ 2.45241094  3.90843415  5.8924768   8.39635181 12.50857282 14.60460472
 18.13269496 20.92466998 22.78070188 25.06071496 29.0608418 ]","[0.3815488815307617, 0.3016493320465088, 0.5415527820587158, 0.7651948928833008, 0.4933629035949707, 1.1735668182373047, 0.32555103302001953, 0.5333170890808105, 0.3017160892486572, 0.6374280452728271, 0.5093996524810791]"
13,testls.png,lst.png,cross,left,24,7.86625075340271,0.6555208961168925,0.36377018771648123,2.030862808227539,"[ 2.03086281  4.36698771  6.47907782  7.3669579  11.20723486 13.09505987
 15.99141693 17.17512584 18.61484075 21.35918379 24.93558407 29.1593318 ]","[ 2.58058977  4.9725759   6.98860788  7.48459387 11.92459989 14.11656404
 16.65255094 18.10869694 19.28458595 21.69281697 26.46081686 29.38091588]","[0.5497269630432129, 0.6055881977081299, 0.5095300674438477, 0.11763596534729004, 0.717365026473999, 1.0215041637420654, 0.6611340045928955, 0.9335711002349854, 0.6697452068328857, 0.3336331844329834, 1.5252327919006348, 0.22158408164978027]"
14,testls.png,lsn.png,uncross,left,20,5.176867961883545,0.5176867961883544,0.28738289647296333,2.671015977859497,"[ 2.67101598  4.75899816  7.09495616 10.97525311 15.30324721 17.911201
 19.92727304 23.09527206 26.36729121 27.87123609]","[ 3.43067431  4.94041395  7.52460217 11.38854814 15.46851206 18.18068409
 20.89271402 23.76477313 26.72484708 28.83684301]","[0.7596583366394043, 0.18141579627990723, 0.42964601516723633, 0.41329503059387207, 0.16526484489440918, 0.2694830894470215, 0.9654409885406494, 0.6695010662078857, 0.3575558662414551, 0.9656069278717041]"
15,testls.png,lst.png,cross,left,24,6.106619358062744,0.5088849465052286,0.3798511362077706,1.7189748287200928,"[ 1.71897483  3.67894387  6.74313498 11.15919089 12.83905196 16.82336187
 18.95130801 20.31126285 22.11116695 23.51114082 25.66327286 30.19134688]","[ 2.04453683  3.82864475  7.2128489  11.6047318  13.12475491 17.79657793
 19.34084201 21.04463482 22.4527998  23.84468079 27.18883085 30.32489276]","[0.3255620002746582, 0.14970088005065918, 0.4697139263153076, 0.4455409049987793, 0.2857029438018799, 0.9732160568237305, 0.38953399658203125, 0.7333719730377197, 0.3416328430175781, 0.3335399627685547, 1.5255579948425293, 0.1335458755493164]"
16,testls.png,lsn.png,uncross,left,16,7.276030778884888,0.909503847360611,0.7005739695124877,5.647319078445435,"[ 5.64731908  8.81513762  9.94312191 12.76714396 16.72745872 20.80754304
 23.08729792 28.21548271]","[ 6.49262476  9.20471597 10.54872394 12.98891282 17.85267186 21.34898472
 25.70093679 29.14896488]","[0.8453056812286377, 0.38957834243774414, 0.6056020259857178, 0.22176885604858398, 1.1252131462097168, 0.5414416790008545, 2.6136388778686523, 0.9334821701049805]"
17,lst.png,testls.png,uncross,right,12,6.408231735229492,1.0680386225382488,0.5114234557436727,3.4711391925811768,[ 3.47113919  9.52722716 14.8312273  17.35109305 25.54346228 29.50362611],[ 4.66042399 10.6204381  15.92465425 17.78072715 27.56484413 30.08491921],"[1.1892848014831543, 1.0932109355926514, 1.0934269428253174, 0.42963409423828125, 2.0213818550109863, 0.5812931060791016]"
18,lsn.png,testls.png,cross,right,18,6.737801551818848,0.7486446168687608,0.5950704887118613,2.678867816925049,"[ 2.67886782  6.4631319   8.52681971 15.38337088 16.66278982 21.87914276
 23.83906198 27.64735389 29.70323682]","[ 3.34024978  7.20458388  9.66830683 15.88464999 18.88465095 22.55676484
 23.98872709 28.14881277 29.84483099]","[0.6613819599151611, 0.7414519786834717, 1.1414871215820312, 0.5012791156768799, 2.2218611240386963, 0.6776220798492432, 0.14966511726379395, 0.5014588832855225, 0.14159417152404785]"
19,lsn.png,testls.png,cross,right,18,4.577826261520386,0.5086473623911539,0.4207833081049946,3.526740789413452,"[ 3.52674079  5.92675185  7.59072495  9.25475597 13.76699781 17.06328011
 19.39910793 24.93525696 28.39115405]","[ 3.94834089  6.13234305  8.05246711  9.54031301 14.27653193 17.23652792
 20.99654794 25.13248491 29.11703992]","[0.4216001033782959, 0.20559120178222656, 0.4617421627044678, 0.2855570316314697, 0.5095341205596924, 0.1732478141784668, 1.5974400043487549, 0.19722795486450195, 0.7258858680725098]"
20,testls.png,lsn.png,uncross,left,16,6.6612794399261475,0.8326599299907684,0.785194550348036,3.5029048919677734,"[ 3.50290489  7.67104292  9.10292411 12.22325206 16.52706695 18.32706094
 21.19904685 29.97548699]","[ 4.324435    8.27652574  9.90057874 12.84442186 17.07676911 18.49269199
 24.02977586 30.24486685]","[0.8215301036834717, 0.605482816696167, 0.7976546287536621, 0.6211698055267334, 0.5497021675109863, 0.16563105583190918, 2.8307290077209473, 0.2693798542022705]"
