trial,right_eye,left_eye,disparity,test_eye,transient_counts,cdt,mdt,dtstd,latency,press_timing,release_timing,key_press_list
1,testls.png,lsn.png,uncross,left,18,6.129578590393066,0.6810642878214518,0.8480850444247818,2.269963026046753,"[ 2.26996303  6.63809109 11.90224719 14.46210933 16.25402427 19.00613499
 20.11803913 24.59012723 28.50217223]","[ 2.5954361   9.62748218 12.20354414 14.72354913 16.47559214 19.25166416
 20.371701   25.1317811  29.49173713]","[0.3254730701446533, 2.9893910884857178, 0.3012969493865967, 0.26143980026245117, 0.22156786918640137, 0.2455291748046875, 0.2536618709564209, 0.5416538715362549, 0.9895648956298828]"
2,lst.png,testls.png,uncross,right,26,9.168303728103638,0.7052541329310491,0.426869133663707,3.0471279621124268,"[ 3.04712796  4.79119205  8.01500702  9.33495402 10.90296912 12.93492293
 15.52694297 17.02294707 18.91112399 20.350878   22.79111695 25.79916692
 26.71115303]","[ 3.73237181  6.43652201  8.42048502  9.620368   11.96441603 13.17251611
 15.98863792 17.46866393 19.43668914 20.71675992 23.98876405 26.36479092
 27.99682093]","[0.6852438449859619, 1.6453299522399902, 0.40547800064086914, 0.2854139804840088, 1.0614469051361084, 0.2375931739807129, 0.46169495582580566, 0.44571685791015625, 0.5255651473999023, 0.36588191986083984, 1.1976470947265625, 0.5656239986419678, 1.285667896270752]"
3,testls.png,lsn.png,uncross,left,26,10.379522323608398,0.7984247941237229,0.48291797575882434,2.1266989707946777,"[ 2.12669897  3.43053699  4.9106791   8.0228529   8.79854989  9.55876088
 11.83071899 16.82288885 18.13474298 21.9749198  23.80677295 27.03925204
 29.94335389]","[ 2.42833304  3.80434394  5.75635481  8.70841694  8.85242891 10.23645282
 13.46850991 17.81262493 19.41255784 23.38220906 24.26064372 28.40451479
 30.25285983]","[0.3016340732574463, 0.3738069534301758, 0.8456757068634033, 0.6855640411376953, 0.0538790225982666, 0.6776919364929199, 1.6377909183502197, 0.9897360801696777, 1.2778148651123047, 1.4072892665863037, 0.4538707733154297, 1.365262746810913, 0.3095059394836426]"
4,lsn.png,testls.png,cross,right,24,13.978985786437988,1.1649154822031658,0.6026646506973842,1.2470030784606934,"[ 1.24700308  2.97483397  4.85509992  7.11896896  8.64664984 12.47901297
 13.76692104 18.63137221 19.80704212 22.91941094 24.35104012 28.32746506]","[ 2.12445116  3.48450899  5.90859699  7.66857314 11.33246613 13.18054509
 15.00469208 19.33257103 20.70073104 24.3167901  26.17318606 29.8766942 ]","[0.8774480819702148, 0.5096750259399414, 1.053497076034546, 0.5496041774749756, 2.6858162879943848, 0.7015321254730225, 1.2377710342407227, 0.7011988162994385, 0.8936889171600342, 1.3973791599273682, 1.822145938873291, 1.5492291450500488]"
5,lst.png,testls.png,uncross,right,30,9.916067123413086,0.6610711415608724,0.6291468318795281,2.0070557594299316,"[ 2.00705576  3.55885172  5.71093082  8.27107382 10.55908394 11.50291681
 13.47904682 15.54279399 17.19922376 20.51136374 22.19916797 23.77516794
 25.08741784 26.23107886 27.48707891]","[ 2.4205029   4.12457871  6.38045907  8.82059789 10.79661489 11.7565589
 14.88448882 16.06081676 17.58892083 21.07682085 22.42071676 24.42077684
 25.49276972 26.53277993 30.26091695]","[0.41344714164733887, 0.5657269954681396, 0.6695282459259033, 0.5495240688323975, 0.23753094673156738, 0.25364208221435547, 1.4054419994354248, 0.5180227756500244, 0.3896970748901367, 0.5654571056365967, 0.22154879570007324, 0.6456089019775391, 0.4053518772125244, 0.30170106887817383, 2.7738380432128906]"
6,lst.png,testls.png,uncross,right,24,8.411147594451904,0.7009289662043253,0.8387247425345631,3.3509559631347656,"[ 3.35095596  7.03910208 13.23102593 16.6710248  17.57493901 18.83895683
 20.06309509 21.66312099 23.6070931  25.74317288 27.35907412 29.01528597]","[ 3.74047279 10.32439494 14.19658995 16.86868095 17.93272305 19.03671002
 20.34868407 22.1087749  24.88472199 26.0447619  27.72463489 29.3568449 ]","[0.38951683044433594, 3.285292863845825, 0.9655640125274658, 0.19765615463256836, 0.3577840328216553, 0.1977531909942627, 0.28558897972106934, 0.44565391540527344, 1.2776288986206055, 0.3015890121459961, 0.36556077003479004, 0.34155893325805664]"
7,lsn.png,testls.png,cross,right,18,13.922652959823608,1.546961439980401,1.0679887743210836,1.51082181930542,"[ 1.51082182  4.59103894  6.62273407  8.15868688 12.83904195 20.00708294
 22.83906794 25.22309303 28.61523104]","[ 2.10843492  6.22045994  7.3725009   9.35650206 16.93260503 22.33263206
 24.26069188 26.80475283 28.94087195]","[0.5976130962371826, 1.6294209957122803, 0.7497668266296387, 1.197815179824829, 4.093563079833984, 2.3255491256713867, 1.421623945236206, 1.5816597938537598, 0.3256409168243408]"
8,testls.png,lsn.png,uncross,left,18,6.1460936069488525,0.6828992896609836,0.6964679608028302,1.3900680541992188,"[ 1.39006805  7.49415016 12.17425299 14.69415402 16.98221207 18.39022422
 20.49429989 24.32640696 29.11052108]","[ 3.53165483  9.28355408 12.50773907 15.13189912 17.45186996 18.61181211
 20.65190291 24.62797499 29.40397596]","[2.1415867805480957, 1.7894039154052734, 0.33348608016967773, 0.4377450942993164, 0.46965789794921875, 0.2215878963470459, 0.15760302543640137, 0.30156803131103516, 0.2934548854827881]"
9,testls.png,lst.png,cross,left,20,13.935269832611084,1.3935269832611084,1.1733880434725474,1.0869269371032715,"[ 1.08692694  3.59101415  4.71070695  7.44693398 10.58288407 14.03908396
 15.62284112 20.2552669  20.37482381 25.90362906]","[ 1.75641108  4.36430621  5.30851197  9.26051712 13.02049494 15.26043415
 18.01265717 20.316679   20.42867613 29.82069302]","[0.6694841384887695, 0.773292064666748, 0.5978050231933594, 1.8135831356048584, 2.4376108646392822, 1.2213501930236816, 2.3898160457611084, 0.06141209602355957, 0.05385231971740723, 3.9170639514923096]"
10,testls.png,lsn.png,uncross,left,24,7.78724217414856,0.6489368478457133,0.6645798773346043,1.222712755203247,"[ 1.22271276  2.38280392  5.10293674  8.13480186  8.28659797 10.37479305
 13.40694499 15.63095188 18.29506087 21.81522202 27.29521489 28.66328192]","[ 1.444381    2.82839394  6.70848584  8.20456696  8.31641507 10.62851572
 13.82859492 15.89256787 19.87648106 23.90065694 27.82876396 28.94074178]","[0.22166824340820312, 0.4455900192260742, 1.6055490970611572, 0.06976509094238281, 0.02981710433959961, 0.2537226676940918, 0.4216499328613281, 0.2616159915924072, 1.5814201831817627, 2.085434913635254, 0.5335490703582764, 0.27745985984802246]"
11,testls.png,lst.png,cross,left,16,12.661019563674927,1.5826274454593658,1.0553069865305928,1.311110258102417,"[ 1.31111026  6.34305024 11.63119006 14.39930224 16.46285319 16.81488609
 22.24720931 27.39129806]","[ 2.90032005 10.05265093 12.5966363  16.42866206 16.49268723 17.41270494
 24.47680926 28.90144825]","[1.589209794998169, 3.7096006870269775, 0.9654462337493896, 2.029359817504883, 0.02983403205871582, 0.5978188514709473, 2.229599952697754, 1.5101501941680908]"
12,testls.png,lsn.png,uncross,left,24,10.538994789123535,0.8782495657602946,0.5907739684337783,1.2866742610931396,"[ 1.28667426  2.91869211  6.02285218  8.14273834 10.2709682  15.95899439
 18.23889017 20.20707321 22.35893607 25.03100014 26.57519913 29.54310918]","[ 1.68436313  3.3483572   7.36420202  8.50040913 12.64453411 17.38857603
 18.94862723 21.42858124 22.81266427 25.32474422 27.20450735 30.44455624]","[0.3976888656616211, 0.42966508865356445, 1.3413498401641846, 0.35767078399658203, 2.373565912246704, 1.429581642150879, 0.7097370624542236, 1.2215080261230469, 0.45372819900512695, 0.2937440872192383, 0.6293082237243652, 0.901447057723999]"
13,lst.png,testls.png,uncross,right,20,12.079297542572021,1.207929754257202,0.80804757652464,1.5349440574645996,"[ 1.53494406  4.46305394  9.6791718  12.77518606 14.27097392 18.66336012
 23.15943098 24.11911988 26.29526782 29.37518406]","[ 1.70050597  6.78055191 11.148489   13.53263497 16.0365541  21.11677814
 23.53284907 24.76484799 28.07692909 29.72484994]","[0.16556191444396973, 2.317497968673706, 1.4693171977996826, 0.7574489116668701, 1.765580177307129, 2.453418016433716, 0.37341809272766113, 0.6457281112670898, 1.7816612720489502, 0.34966588020324707]"
14,lsn.png,testls.png,cross,right,18,13.394508361816406,1.4882787068684895,1.0098309337755134,1.2151448726654053,"[ 1.21514487  2.19887495  4.87907696 10.89514685 15.56748295 17.51913905
 22.99938297 25.25534701 28.99135494]","[ 1.428689    2.63661098  8.16466403 12.88481498 16.94895816 19.94070101
 23.4129529  27.54899192 29.94907594]","[0.21354413032531738, 0.43773603439331055, 3.2855870723724365, 1.9896681308746338, 1.3814752101898193, 2.4215619564056396, 0.41356992721557617, 2.293644905090332, 0.9577209949493408]"
15,testls.png,lst.png,cross,left,22,12.702795505523682,1.1547995914112439,0.5755846376635354,1.4628171920776367,"[ 1.46281719  4.83087587  7.74289894  8.8628099  11.2471261  13.20728707
 14.9910841  18.91916013 21.82338214 27.01530099 29.54309201]","[ 2.11644912  6.87014604  8.10851407 10.30039096 11.88461399 14.01245499
 16.68448997 19.66869688 23.72522807 28.72480798 30.2528379 ]","[0.6536319255828857, 2.0392701625823975, 0.3656151294708252, 1.4375810623168945, 0.6374878883361816, 0.8051679134368896, 1.6934058666229248, 0.7495367527008057, 1.901845932006836, 1.7095069885253906, 0.7097458839416504]"
16,testls.png,lst.png,cross,left,18,12.794120073318481,1.4215688970353868,0.5872967246113062,1.0067517757415771,"[ 1.00675178  4.43112183  8.01489782 12.17523289 16.30322981 21.23917103
 24.72719574 26.01501203 28.29521894]","[ 1.85229993  6.10833287 10.24459887 13.47659373 18.02866697 22.98065877
 25.588763   26.37289786 30.34913993]","[0.845548152923584, 1.677211046218872, 2.229701042175293, 1.301360845565796, 1.7254371643066406, 1.741487741470337, 0.8615672588348389, 0.35788583755493164, 2.0539209842681885]"
17,testls.png,lst.png,cross,left,12,12.817217588424683,2.1362029314041138,0.9514137887189578,1.3748819828033447,[ 1.37488198  6.15893412  7.50258112 14.30305719 20.43918729 28.5672822 ],[ 3.71627998  6.92434502  9.93257713 17.42847013 23.62081814 29.54065108],"[2.341398000717163, 0.7654109001159668, 2.4299960136413574, 3.125412940979004, 3.181630849838257, 0.9733688831329346]"
18,lsn.png,testls.png,cross,right,22,15.413549661636353,1.4012317874214866,1.0149865408058685,1.5908570289611816,"[ 1.59085703  4.19885898  7.85479307 10.3028512  13.35090518 16.93496299
 18.12695003 20.463094   21.7593019  23.43929815 29.39130282]","[ 2.41235089  6.76451516  8.75626707 12.62138605 14.93238878 17.50861001
 18.93258286 20.73273611 22.54867005 27.22069192 30.3965261 ]","[0.8214938640594482, 2.5656561851501465, 0.9014739990234375, 2.3185348510742188, 1.5814836025238037, 0.5736470222473145, 0.8056328296661377, 0.2696421146392822, 0.7893681526184082, 3.7813937664031982, 1.005223274230957]"
19,lst.png,testls.png,uncross,right,22,7.741222381591797,0.7037474892356179,0.5225130531470871,2.7270143032073975,"[ 2.7270143   7.05523825  9.34294415 12.09506106 15.5033052  17.51126814
 19.543082   21.9673171  23.73513532 25.42322516 28.03921223]","[ 3.23662615  8.45244122 11.14065003 12.42060423 16.0208981  17.8047471
 19.90879107 22.60478902 24.02881718 26.78871703 28.27694416]","[0.5096118450164795, 1.397202968597412, 1.797705888748169, 0.3255431652069092, 0.5175929069519043, 0.29347896575927734, 0.3657090663909912, 0.6374719142913818, 0.2936818599700928, 1.3654918670654297, 0.23773193359375]"
20,lsn.png,testls.png,cross,right,24,10.242040157318115,0.8535033464431763,0.7151220292084892,1.2072911262512207,"[ 1.20729113  3.00693083  4.38296103  5.95085001  7.831002    9.39122796
 11.04728007 12.66317391 15.15919876 18.15110493 20.99916792 29.4715929 ]","[ 1.78856683  3.53255582  4.66057801  6.15654278  8.99667382  9.88471174
 11.21263194 13.26065087 16.73257279 19.12460303 23.82880402 30.32492995]","[0.5812757015228271, 0.5256249904632568, 0.2776169776916504, 0.20569276809692383, 1.1656718254089355, 0.4934837818145752, 0.16535186767578125, 0.5974769592285156, 1.5733740329742432, 0.9734981060028076, 2.8296360969543457, 0.8533370494842529]"
