trial,right_eye,left_eye,validity,stim_cnd,disparity,transient_counts,cdt,mdt,dtstd,latency,press_timing,release_timing,key_press_list
1,15ls.png,ls.png,valid,block,cross,14,3.1827480792999268,0.4546782970428467,0.19116037622812435,5.750319957733154,"[ 5.75031996 10.07821107 14.67013073 19.09441495 20.05400085 23.89431906
 27.03027391]","[ 6.60361695 10.371696   15.1717329  19.3638649  20.54775786 24.38789701
 27.30785298]","[0.8532969951629639, 0.2934849262237549, 0.5016021728515625, 0.26944994926452637, 0.4937570095062256, 0.4935779571533203, 0.27757906913757324]"
2,ls.png,1ls.png,invalid,line,uncross,22,6.911643743515015,0.6283312494104559,0.22262395651454608,2.887147903442383,"[ 2.8871479   7.57508302  9.85476923 14.46290612 15.98290706 18.3428762
 20.55089808 21.23891616 22.25485587 24.31092715 28.34323192]","[ 3.33258915  8.25247312 10.51632214 15.02862787 16.64631295 19.32463717
 21.20466089 21.34861803 22.90068913 25.26051402 28.90071797]","[0.44544124603271484, 0.6773900985717773, 0.661552906036377, 0.5657217502593994, 0.6634058952331543, 0.9817609786987305, 0.6537628173828125, 0.10970187187194824, 0.6458332538604736, 0.9495868682861328, 0.5574860572814941]"
3,1ls.png,ls.png,valid,line,cross,24,3.596198081970215,0.2996831734975179,0.08970794428740501,2.398979902267456,"[ 2.3989799   7.0069499   9.3667829  11.0788269  13.69491482 16.16690588
 17.10286689 19.58294106 21.20694399 23.31906486 26.91963792 28.07100606]","[ 2.57247114  7.18859982  9.62049794 11.27652884 14.14864206 16.54069591
 17.42863178 19.99678087 21.55671287 23.56482196 27.18084097 28.436795  ]","[0.1734912395477295, 0.18164992332458496, 0.25371503829956055, 0.19770193099975586, 0.45372724533081055, 0.37379002571105957, 0.32576489448547363, 0.41383981704711914, 0.34976887702941895, 0.2457571029663086, 0.2612030506134033, 0.36578893661499023]"
4,1ls.png,ls.png,valid,line,cross,26,4.057088613510132,0.3120837395007794,0.18154111757295133,2.9349191188812256,"[ 2.93491912  6.98306608  9.35884404 10.31082606 11.72677922 14.86312604
 18.03136826 19.87105513 20.84690094 23.78299904 25.80704618 26.99939513
 29.76716208]","[ 3.14041591  7.32456803  9.57250094 10.71660519 12.02068305 15.076612
 18.2526741  20.07672024 21.75654006 24.0207212  26.06878209 27.26889706
 30.04485607]","[0.20549678802490234, 0.34150195121765137, 0.21365690231323242, 0.4057791233062744, 0.29390382766723633, 0.2134859561920166, 0.22130584716796875, 0.20566511154174805, 0.9096391201019287, 0.23772215843200684, 0.2617359161376953, 0.2695019245147705, 0.2776939868927002]"
5,ls.png,1ls.png,invalid,line,uncross,26,8.385788202285767,0.6450606309450589,0.33284786177173153,6.935331106185913,"[ 6.93533111  7.61489606  9.5989182  11.39885998 14.21511698 15.31887412
 17.23901892 19.97498894 23.54317212 24.50304103 26.43099117 27.51891613
 29.89507198]","[ 7.25253201  8.22848296 11.08464599 11.70053697 14.90061784 15.72467923
 18.26865602 20.68470693 24.18087387 25.32474399 27.20479107 27.74087906
 30.27683902]","[0.3172008991241455, 0.6135869026184082, 1.4857277870178223, 0.30167698860168457, 0.6855008602142334, 0.4058051109313965, 1.029637098312378, 0.7097179889678955, 0.6377017498016357, 0.8217029571533203, 0.7737998962402344, 0.22196292877197266, 0.38176703453063965]"
6,ls.png,15ls.png,invalid,block,uncross,20,8.913610935211182,0.8913610935211181,0.4476545307924242,1.9750540256500244,"[ 1.97505403  4.19864297  8.35877585 10.81469393 13.51882887 18.47885394
 21.758708   26.2229321  28.30297089 29.57492113]","[ 2.62813592  4.76429701  9.22037697 11.46046185 14.69373083 19.43653989
 23.82043815 27.172647   28.66870403 30.25266099]","[0.6530818939208984, 0.5656540393829346, 0.8616011142730713, 0.6457679271697998, 1.1749019622802734, 0.9576859474182129, 2.061730146408081, 0.9497148990631104, 0.36573314666748047, 0.6777398586273193]"
7,1ls.png,ls.png,valid,line,cross,20,6.848596811294556,0.6848596811294556,0.5721671823991122,6.727092981338501,"[ 6.72709298  8.90303278  9.8229177  10.77496386 12.30292988 14.62330866
 19.39954472 23.7512629  25.39915395 29.85533381]","[ 7.02072883  9.15679479 10.10874772 11.02076697 13.10870385 15.44477677
 20.52480578 24.1649127  27.57294583 30.28495479]","[0.29363584518432617, 0.25376200675964355, 0.285830020904541, 0.2458031177520752, 0.8057739734649658, 0.8214681148529053, 1.1252610683441162, 0.4136497974395752, 2.1737918853759766, 0.42962098121643066]"
8,ls.png,15ls.png,invalid,block,uncross,18,10.54811692237854,1.1720129913753934,0.705657108098526,2.502948045730591,"[ 2.50294805  6.5348978  10.36741304 14.04719782 16.03899598 21.33524084
 24.08705211 25.6391511  27.359231  ]","[ 3.82844996  8.03662896 11.100528   15.93272185 16.06873488 22.32483721
 25.29296088 26.03690195 29.83848095]","[1.3255019187927246, 1.5017311573028564, 0.7331149578094482, 1.885524034500122, 0.029738903045654297, 0.9895963668823242, 1.2059087753295898, 0.3977508544921875, 2.479249954223633]"
9,ls.png,testls.png,local,local,t.cross,24,12.668914794921875,1.055742899576823,0.62287934316755,0.8628408908843994,"[ 0.86284089  3.15082502  6.2069242  10.37499595 13.2389462  14.59897709
 16.99904799 18.49506211 20.97509098 24.95918012 27.52721906 29.2071178 ]","[ 1.61254311  4.62862396  8.4286952  11.86074805 14.11659598 14.94875717
 17.53275084 19.03682685 23.21271396 25.70894694 28.42096114 29.75697899]","[0.7497022151947021, 1.4777989387512207, 2.221771001815796, 1.4857521057128906, 0.8776497840881348, 0.3497800827026367, 0.5337028503417969, 0.5417647361755371, 2.2376229763031006, 0.7497668266296387, 0.8937420845031738, 0.5498611927032471]"
10,testls.png,ls.png,local,local,t.uncross,32,7.603193283081055,0.4751995801925659,0.2558583096691334,2.5348808765411377,"[ 2.53488088  4.55894375  5.81486273  8.11891985  9.83092093 11.73494577
 12.23086381 14.50295305 16.18304276 17.91891885 19.45488381 20.2070539
 21.0870297  22.43915701 25.49529505 30.2234199 ]","[ 3.30853796  4.88452673  6.44451594  8.516608   10.17271566 12.18861485
 12.34873772 15.11673975 16.40464783 18.18871474 19.76475883 20.81276584
 21.47683883 23.39680481 26.49287987 30.4208777 ]","[0.7736570835113525, 0.32558298110961914, 0.6296532154083252, 0.3976881504058838, 0.3417947292327881, 0.45366907119750977, 0.1178739070892334, 0.6137866973876953, 0.2216050624847412, 0.26979589462280273, 0.3098750114440918, 0.6057119369506836, 0.38980913162231445, 0.9576478004455566, 0.9975848197937012, 0.19745779037475586]"
11,15ls.png,ls.png,valid,block,cross,14,5.623178243637085,0.8033111776624408,0.34520405735445486,10.967221975326538,"[10.96722198 13.11087203 16.12711    18.79131293 22.09503698 27.09515119
 28.43106008]","[11.82063222 13.83645606 16.708776   19.31673598 23.67667794 27.94883418
 28.93283105]","[0.8534102439880371, 0.7255840301513672, 0.5816659927368164, 0.5254230499267578, 1.5816409587860107, 0.8536829948425293, 0.5017709732055664]"
12,ls.png,testls.png,local,local,t.cross,14,12.447432041168213,1.7782045773097448,0.9216650762511613,0.87884521484375,"[ 0.87884521  4.01517415  8.23911929 13.75114918 19.55932331 21.59123611
 26.81526923]","[ 1.44461918  6.21251512 11.68481421 16.30077624 20.66924429 22.90065718
 28.08492231]","[0.5657739639282227, 2.197340965270996, 3.445694923400879, 2.5496270656585693, 1.1099209785461426, 1.3094210624694824, 1.269653081893921]"
13,testls.png,ls.png,local,local,t.uncross,28,7.367641448974609,0.5262601034981864,0.30334490950433945,1.9427399635314941,"[ 1.94273996  3.09463096  4.93477488  7.39077902  9.07079506 10.28685713
 13.535326   14.71093702 17.9349761  20.38306594 21.854954   24.87912583
 26.21511102 28.67925906]","[ 2.17248702  3.72434497  5.38052702  7.74861979  9.39658093 10.87643981
 13.76462698 16.14049101 18.36475706 20.70074606 22.75685477 25.44478917
 26.70087504 29.10883379]","[0.22974705696105957, 0.6297140121459961, 0.4457521438598633, 0.35784077644348145, 0.32578587532043457, 0.5895826816558838, 0.22930097579956055, 1.4295539855957031, 0.4297809600830078, 0.31768012046813965, 0.9019007682800293, 0.5656633377075195, 0.4857640266418457, 0.42957472801208496]"
14,ls.png,testls.png,local,local,t.cross,22,13.78256368637085,1.2529603351246228,0.8441449358217715,1.6708049774169922,"[ 1.67080498  4.23893595  7.8788209  10.80683994 12.45487309 14.19875288
 15.54278708 18.55111814 20.69499898 23.07105899 27.95908785]","[ 2.02845693  6.2926569   9.79650998 12.05263305 12.78063583 14.86044908
 16.7084949  18.92467403 21.39670086 26.10877681 29.90065408]","[0.357651948928833, 2.0537209510803223, 1.9176890850067139, 1.245793104171753, 0.3257627487182617, 0.661696195602417, 1.1657078266143799, 0.37355589866638184, 0.7017018795013428, 3.037717819213867, 1.9415662288665771]"
15,15ls.png,ls.png,valid,block,cross,10,1.1636204719543457,0.23272409439086914,0.039300738257237684,11.143147945404053,[11.14314795 12.23886108 18.88740516 22.56727409 24.45501208],[11.41251397 12.4845829  19.10066795 22.83676004 24.62079597],"[0.2693660259246826, 0.24572181701660156, 0.21326279640197754, 0.2694859504699707, 0.16578388214111328]"
16,testls.png,ls.png,local,local,t.uncross,28,6.959562540054321,0.4971116100038801,0.22915360383411507,2.310930013656616,"[ 2.31093001  3.95089698  5.02281809  7.62290001  8.6867671  10.26319599
 12.72688413 16.12702489 17.29502106 20.39099813 20.95105791 21.75963807
 22.87910008 25.59904909]","[ 2.70050693  4.29260015  5.50857711  7.82067013  9.05262494 11.12464213
 13.14066529 16.47670197 18.04479384 20.88472009 21.37283111 22.29286718
 23.17280698 26.66083622]","[0.38957691192626953, 0.3417031764984131, 0.48575901985168457, 0.1977701187133789, 0.3658578395843506, 0.8614461421966553, 0.41378116607666016, 0.34967708587646484, 0.7497727870941162, 0.49372196197509766, 0.42177319526672363, 0.5332291126251221, 0.29370689392089844, 1.0617871284484863]"
17,15ls.png,ls.png,valid,block,cross,14,5.528415203094482,0.7897736004420689,0.24831212081031798,3.511218786239624,"[ 3.51121879  8.04728699 15.33513975 18.21503568 21.99112773 23.22303176
 26.41513276]","[ 4.16585279  9.40444779 16.09271884 18.90858579 22.56485987 23.8452208
 27.28470278]","[0.6546339988708496, 1.3571608066558838, 0.7575790882110596, 0.6935501098632812, 0.5737321376800537, 0.6221890449523926, 0.8695700168609619]"
18,1ls.png,ls.png,valid,line,cross,26,6.4571614265441895,0.49670472511878383,0.5698937196309952,2.9673280715942383,"[ 2.96732807  5.93505001  7.88696599  8.78288603 10.07136106 11.79938912
 13.19111395 14.84704804 17.31125712 18.51905632 20.11104894 21.07912302
 28.14320207]","[ 3.29264998  6.68461227  8.1488111   8.94869304 10.62885094 12.14070606
 13.58081007 15.06075811 17.51685309 18.82080913 20.31682515 23.47671413
 28.48489809]","[0.32532191276550293, 0.7495622634887695, 0.26184511184692383, 0.16580700874328613, 0.5574898719787598, 0.34131693840026855, 0.3896961212158203, 0.21371006965637207, 0.2055959701538086, 0.30175280570983887, 0.20577621459960938, 2.3975911140441895, 0.34169602394104004]"
19,ls.png,testls.png,local,local,t.cross,18,12.821871519088745,1.4246523910098605,0.6008856980521955,1.9419620037078857,"[ 1.941962    5.36599302  8.35792422 11.31004214 15.49410415 18.56607103
 21.79019713 25.99836421 29.01424623]","[ 3.34767222  6.80370426  8.64367414 12.85301709 18.09989214 19.99571824
 23.7479403  27.17332101 29.99583626]","[1.405710220336914, 1.437711238861084, 0.2857499122619629, 1.5429749488830566, 2.605787992477417, 1.4296472072601318, 1.9577431678771973, 1.1749567985534668, 0.9815900325775146]"
20,15ls.png,ls.png,valid,block,cross,24,5.2514238357543945,0.4376186529795329,0.18906575426748573,2.9347567558288574,"[ 2.93475676  7.92722106 12.27086997 12.96668482 15.68711185 17.03109717
 19.26335788 20.51895189 22.39100289 23.81503105 27.46311808 28.63101006]","[ 3.66828704  8.60444903 12.46869206 13.52454805 16.15662217 17.2286458
 19.66068411 21.00473905 23.05254889 24.25275493 27.64478111 28.88488507]","[0.7335302829742432, 0.6772279739379883, 0.19782209396362305, 0.5578632354736328, 0.4695103168487549, 0.19754862785339355, 0.3973262310028076, 0.48578715324401855, 0.661545991897583, 0.43772387504577637, 0.18166303634643555, 0.2538750171661377]"
21,ls.png,testls.png,local,local,t.cross,22,10.911065101623535,0.9919150092385032,0.5340809332060715,0.9587578773498535,"[ 0.95875788  2.26273203  5.81487489  9.7349     13.33494616 13.81492209
 18.54352689 19.83099699 23.66317391 27.55909801 29.27108097]","[ 1.26855993  3.86059284  6.908571   11.49278283 13.75665116 14.53276086
 19.80477285 20.35675502 25.34887505 28.79687715 29.57287621]","[0.3098020553588867, 1.5978608131408691, 1.093696117401123, 1.757882833480835, 0.4217050075531006, 0.7178387641906738, 1.2612459659576416, 0.5257580280303955, 1.6857011318206787, 1.237779140472412, 0.30179524421691895]"
22,testls.png,ls.png,local,local,t.uncross,28,10.789023160934448,0.7706445114953178,0.3084932494091512,2.0948219299316406,"[ 2.09482193  3.28680897  5.39882302  6.95872188  8.79886985 10.47885394
 12.1108551  14.94289804 17.23096681 19.26298499 21.52696109 24.94308305
 27.44716597 29.30309319]","[ 2.53252006  3.72458291  6.01254416  7.99666119  9.42220998 11.3088789
 13.06066585 16.02869201 17.99110103 20.75659609 21.74081397 25.6768539
 28.12487793 30.19693303]","[0.4376981258392334, 0.4377739429473877, 0.6137211322784424, 1.0379393100738525, 0.6233401298522949, 0.8300249576568604, 0.9498107433319092, 1.0857939720153809, 0.760134220123291, 1.4936110973358154, 0.2138528823852539, 0.7337708473205566, 0.6777119636535645, 0.8938398361206055]"
23,1ls.png,ls.png,valid,line,cross,24,8.507667541503906,0.7089722951253256,0.4548644889753258,4.118926048278809,"[ 4.11892605  5.83116794  7.11891508  9.75160694 12.35897589 14.01495504
 14.91098213 20.31126904 23.0230689  26.07934618 27.63109922 29.11105895]","[ 4.44457793  6.14058304  8.78061509 10.34869909 13.16467094 14.38074493
 16.26874495 20.62879896 23.90080404 26.53289104 27.86894107 30.30896783]","[0.3256518840789795, 0.3094151020050049, 1.6617000102996826, 0.5970921516418457, 0.8056950569152832, 0.36578989028930664, 1.3577628135681152, 0.31752991676330566, 0.8777351379394531, 0.45354485511779785, 0.23784184455871582, 1.197908878326416]"
24,ls.png,15ls.png,invalid,block,uncross,18,9.738500595092773,1.0820556216769748,0.8895543268236769,2.6068828105926514,"[ 2.60688281  8.79089594 12.87912083 15.81481886 17.3272841  18.77480984
 19.42291474 23.93505287 27.391536  ]","[ 5.70055294  9.12454796 14.38064599 16.10862803 18.68450904 18.81270695
 19.86064696 25.24477696 28.76480174]","[3.093670129776001, 0.3336520195007324, 1.5015251636505127, 0.293809175491333, 1.357224941253662, 0.03789710998535156, 0.4377322196960449, 1.3097240924835205, 1.3732657432556152]"
25,ls.png,15ls.png,invalid,block,uncross,12,10.66547417640686,1.7775790294011433,0.6260436346443834,3.2788820266723633,[ 3.27888203  7.99091196 12.2709229  18.5514679  21.97521996 28.23111081],[ 4.84453869  9.14857793 15.23670387 19.81259274 24.17270875 29.74886775],"[1.5656566619873047, 1.1576659679412842, 2.9657809734344482, 1.261124849319458, 2.197488784790039, 1.5177569389343262]"
26,ls.png,1ls.png,invalid,line,uncross,20,9.642037153244019,0.9642037153244019,0.33930916182874216,4.079017877578735,"[ 4.07901788  6.31905985 10.57480597 13.8387692  17.59088707 19.01480317
 21.57490206 22.42288899 25.110991   28.36701012]","[ 4.98826098  7.65244508 12.01237512 15.0284071  18.12459302 19.74917293
 22.09267902 23.53376818 26.42070198 28.93276906]","[0.909243106842041, 1.3333852291107178, 1.4375691413879395, 1.1896378993988037, 0.5337059497833252, 0.7343697547912598, 0.5177769660949707, 1.1108791828155518, 1.30971097946167, 0.5657589435577393]"
27,ls.png,15ls.png,invalid,block,uncross,20,10.204427003860474,1.0204427003860475,0.5225453634064459,2.1187100410461426,"[ 2.11871004  5.8068831  10.88688993 12.49480891 14.79075003 15.73485088
 18.39140296 20.53500605 24.99128604 28.41509914]","[ 3.27055192  7.50042415 11.83656216 13.26849198 15.06065297 16.5084672
 18.62864304 22.31672692 25.93478489 30.04480886]","[1.1518418788909912, 1.6935410499572754, 0.9496722221374512, 0.7736830711364746, 0.26990294456481934, 0.7736163139343262, 0.23724007606506348, 1.7817208766937256, 0.9434988498687744, 1.6297097206115723]"
28,ls.png,1ls.png,invalid,line,uncross,20,8.528058528900146,0.8528058528900146,0.5057995914917089,1.7429139614105225,"[ 1.74291396  2.51080108  8.67926121 12.5990231  14.15879416 17.65514112
 20.91908503 23.375211   26.527143   29.91115522]","[ 2.05253005  3.21247196 10.67660308 13.860497   14.96448302 18.98873305
 21.70874    23.93281817 26.87683702 30.33287406]","[0.3096160888671875, 0.7016708850860596, 1.9973418712615967, 1.2614738941192627, 0.8056888580322266, 1.3335919380187988, 0.7896549701690674, 0.5576071739196777, 0.34969401359558105, 0.4217188358306885]"
29,ls.png,1ls.png,invalid,line,uncross,22,10.542176723480225,0.9583797021345659,0.5626424221197912,4.1588780879974365,"[ 4.15887809  8.23878622  9.31078196 11.1187222  11.85473514 17.99133801
 21.04695296 21.9108932  25.47105908 27.41505313 28.09503222]","[ 5.22840405  8.88451195  9.82849002 11.54858184 14.27640104 19.42068005
 21.62064791 22.87671304 26.58056498 27.77283216 29.11658192]","[1.069525957107544, 0.6457257270812988, 0.5177080631256104, 0.42985963821411133, 2.421665906906128, 1.4293420314788818, 0.5736949443817139, 0.9658198356628418, 1.1095058917999268, 0.35777902603149414, 1.0215497016906738]"
30,testls.png,ls.png,local,local,t.uncross,22,10.733731508255005,0.9757937734777277,0.7553208926757738,2.7589309215545654,"[ 2.75893092  5.96681285  8.13491893  9.32684803 12.302845   17.90311885
 19.575073   21.57494879 24.95909595 26.63172889 29.47908998]","[ 3.87635112  6.46855783  8.42056704 10.76458812 15.10853577 18.19668293
 20.26069999 23.48481393 25.37281704 27.14886689 30.24466205]","[1.1174201965332031, 0.5017449855804443, 0.2856481075286865, 1.4377400875091553, 2.8056907653808594, 0.2935640811920166, 0.6856269836425781, 1.909865140914917, 0.41372108459472656, 0.5171380043029785, 0.7655720710754395]"
