trial,width,transient_counts,cdt,mdt,dtstd,latency,press_timing,release_timing,key_press_list
1,1,16,6.124744892120361,0.7655931115150452,0.5852645139823915,3.397819995880127,"[ 3.39782     6.51785707 10.05363989 13.39770913 15.07755899 17.77362514
 19.69398975 23.67792678]","[ 3.5790658   7.99533105 10.72331285 13.603338   16.50739789 17.99544692
 20.05148005 25.25949907]","[0.1812458038330078, 1.4774739742279053, 0.669672966003418, 0.2056288719177246, 1.4298388957977295, 0.22182178497314453, 0.35749030113220215, 1.5815722942352295]"
2,1,22,8.006103277206421,0.7278275706551292,0.4969604234147863,5.127316951751709,"[ 5.12731695  7.05507374  8.88710785 12.14335394 14.02298594 17.703125
 18.88687801 20.59106994 23.415205   25.4871819  29.71112084]","[ 5.39661193  7.51663971  9.24474502 12.50872684 15.61254311 18.00474691
 19.70084    21.45294595 25.13270903 26.45297599 30.01303792]","[0.26929497718811035, 0.4615659713745117, 0.3576371669769287, 0.365372896194458, 1.58955717086792, 0.3016219139099121, 0.8139619827270508, 0.8618760108947754, 1.7175040245056152, 0.9657940864562988, 0.30191707611083984]"
3,20,8,2.4222137928009033,0.6055534482002258,0.6561904692106759,6.967077255249023,[ 6.96707726 14.32710195 16.64725709 20.55910611],[ 7.21265197 14.56465888 16.84467006 22.30077529],"[0.2455747127532959, 0.23755693435668945, 0.19741296768188477, 1.7416691780090332]"
4,1,16,3.460507392883301,0.4325634241104126,0.23643797213509643,8.583046197891235,"[ 8.5830462  10.39106727 11.91877913 14.98297405 16.59115005 23.56748319
 25.43123412 28.36745119]","[ 8.89270306 10.7406621  12.7005651  15.25270295 17.4766171  23.82085299
 25.79675007 28.61283922]","[0.30965685844421387, 0.3495948314666748, 0.7817859649658203, 0.2697288990020752, 0.8854670524597168, 0.2533698081970215, 0.36551594734191895, 0.24538803100585938]"
5,20,10,3.6670212745666504,0.7334042549133301,0.5032817167521848,6.110341787338257,[ 6.11034179  8.1900239  14.47014594 19.12634015 24.85421801],[ 6.52356982  9.90741205 15.13148594 19.65177011 25.20385313],"[0.41322803497314453, 1.7173881530761719, 0.6613399982452393, 0.5254299640655518, 0.34963512420654297]"
6,20,12,4.201406240463257,0.7002343734105428,0.855851385081724,9.159004926681519,[ 9.15900493 14.80702806 15.75878191 17.35879612 26.63137889 30.06330085],[ 9.62051201 15.00459909 16.09248686 19.96469092 26.95670199 30.34070611],"[0.46150708198547363, 0.1975710391998291, 0.33370494842529297, 2.6058948040008545, 0.32532310485839844, 0.2774052619934082]"
7,1,22,4.550026178359985,0.4136387434872714,0.1842690915704554,2.287118911743164,"[ 2.28711891  5.87119484  7.98318195  9.12665081 10.21476102 13.574857
 15.42276478 16.72669387 18.98284602 23.27913499 26.21531391]","[ 2.5164628   6.13254881  8.30052304  9.39663601 10.46853304 13.97261691
 15.73259497 17.35658193 19.77265    23.70878482 26.87661195]","[0.22934389114379883, 0.2613539695739746, 0.3173410892486572, 0.2699851989746094, 0.2537720203399658, 0.39775991439819336, 0.3098301887512207, 0.6298880577087402, 0.7898039817810059, 0.42964982986450195, 0.6612980365753174]"
8,20,12,3.473008871078491,0.5788348118464152,0.5011550035841972,5.063004970550537,[ 5.06300497  8.4233098  13.59938908 16.77504301 24.24757195 25.22304916],[ 5.41272497  8.71664095 13.75670195 18.34080005 25.13263798 25.44487095],"[0.3497200012207031, 0.2933311462402344, 0.15731287002563477, 1.5657570362091064, 0.885066032409668, 0.22182178497314453]"
9,10,14,4.207561731338501,0.6010802473340716,0.3585059238294664,9.64731216430664,"[ 9.64731216 15.12705731 15.99107814 18.09493613 20.83891511 23.64712214
 27.55113506]","[ 9.89267111 15.33272815 16.67669296 19.16468    21.00476122 24.57281017
 28.46077418]","[0.24535894393920898, 0.20567083358764648, 0.685614824295044, 1.0697438716888428, 0.1658461093902588, 0.9256880283355713, 0.9096391201019287]"
10,20,12,6.2734034061431885,1.045567234357198,0.7272141384802789,6.495020866394043,[ 6.49502087 13.29535604 15.45490193 16.8228662  24.12741709 29.03927112],[ 7.03672791 14.52449083 15.67668509 19.21262598 25.50880098 29.54890585],"[0.5417070388793945, 1.2291347980499268, 0.22178316116333008, 2.3897597789764404, 1.3813838958740234, 0.5096347332000732]"
11,10,14,4.7752649784088135,0.6821807112012591,0.5503433512627989,5.583058834075928,"[ 5.58305883  8.20720482 17.86312389 21.65497494 26.23905897 28.295048
 30.01517963]","[ 5.76453781  8.50046182 19.17268777 22.41288185 27.91676807 28.55676293
 30.30881381]","[0.18147897720336914, 0.2932569980621338, 1.3095638751983643, 0.7579069137573242, 1.6777091026306152, 0.2617149353027344, 0.29363417625427246]"
12,10,12,4.601197004318237,0.7668661673863729,0.39921216540532756,4.686936140060425,[ 4.68693614  6.86285996 12.29552627 17.73502898 26.5193882  28.31119895],[ 5.22839808  7.18858504 13.2926631  18.82060409 26.8209672  29.660918  ],"[0.5414619445800781, 0.32572507858276367, 0.9971368312835693, 1.0855751037597656, 0.30157899856567383, 1.3497190475463867]"
13,10,12,3.080979347229004,0.5134965578715006,0.3550188107802711,5.647414922714233,[ 5.64741492  7.43138599 11.40725708 24.46350312 25.97518516 29.343328  ],[ 5.83674407  7.70072603 11.67681098 25.56494617 26.31695414 30.25287223],"[0.1893291473388672, 0.26934003829956055, 0.26955389976501465, 1.1014430522918701, 0.3417689800262451, 0.9095442295074463]"
14,1,26,5.465412139892578,0.42041631845327526,0.34201697220961946,3.5268499851226807,"[ 3.52684999  6.72682118  7.97479129  9.82280397 11.61486316 14.23091316
 15.81473517 16.63883519 18.19125128 19.10294819 22.19903302 23.75911617
 29.63159013]","[ 4.10048413  7.0205121   8.19647408 10.06049418 11.86854911 14.48462629
 16.13259912 16.8126142  18.45262313 20.62871122 22.50865817 24.25274324
 30.18087506]","[0.573634147644043, 0.29369091987609863, 0.22168278694152832, 0.23769021034240723, 0.25368595123291016, 0.25371313095092773, 0.31786394119262695, 0.17377901077270508, 0.2613718509674072, 1.5257630348205566, 0.30962514877319336, 0.49362707138061523, 0.5492849349975586]"
15,10,18,5.393834829330444,0.599314981036716,0.2718640053228156,3.4787840843200684,"[ 3.47878408  6.21528506  6.97482586  7.65472007 10.95892096 15.17528701
 19.4074738  22.82310987 26.7671051 ]","[ 3.70856595  6.58858895  7.59640813  7.86061597 11.81253886 15.74870491
 20.41256094 23.45266104 27.66870189]","[0.2297818660736084, 0.3733038902282715, 0.6215822696685791, 0.20589590072631836, 0.8536179065704346, 0.5734179019927979, 1.00508713722229, 0.6295511722564697, 0.9015967845916748]"

