trial,right_eye,left_eye,validity,stim_cnd,disparity,transient_counts,cdt,mdt,dtstd,latency,press_timing,release_timing,key_press_list
1,testls.png,1cls.png,local,local_r,uncross,16,6.452484130859375,0.8065605163574219,0.8026724159714722,7.637303113937378,"[ 7.63730311  8.10091901 10.01332116 12.48491621 14.30104899 17.98901606
 22.42142892 29.25338101]","[ 8.05864811  8.12262511 10.45065212 12.99473214 15.60260606 18.47482204
 25.16269994 29.78703308]","[0.4213449954986572, 0.021706104278564453, 0.437330961227417, 0.5098159313201904, 1.3015570640563965, 0.4858059883117676, 2.7412710189819336, 0.5336520671844482]"
2,1cls.png,1ls.png,invalid,line,cross,14,9.063133001327515,1.2947332859039307,0.6826723504457267,6.823254108428955,"[ 6.82325411  8.55890703 10.60708785 13.97507787 19.45528102 26.23934793
 28.71153903]","[ 6.97268319  9.72475696 12.64456677 15.49278021 21.69288778 27.56496811
 29.34098482]","[0.1494290828704834, 1.1658499240875244, 2.0374789237976074, 1.517702341079712, 2.2376067638397217, 1.325620174407959, 0.6294457912445068]"
3,1cls.png,testls.png,local,local_l,cross,10,8.03839921951294,1.607679843902588,0.38515588119415345,4.543048143386841,[ 4.54304814  8.45499015 17.37515903 22.55109024 28.97526097],[ 5.51845813 10.38856506 19.37267733 24.31740713 30.3408401 ],"[0.975409984588623, 1.933574914932251, 1.9975183010101318, 1.7663168907165527, 1.3655791282653809]"
4,1ls.png,1cls.png,valid,line,uncross,12,5.322343587875366,0.8870572646458944,0.4860741259572626,10.055293798446655,[10.0552938  15.52720308 16.19909501 25.81572104 27.32712603 29.53525877],[11.50068784 15.83681989 17.70207787 26.10088301 28.34076786 30.30080485],"[1.4453940391540527, 0.3096168041229248, 1.5029828548431396, 0.28516197204589844, 1.0136418342590332, 0.7655460834503174]"
5,1ls.png,1cls.png,valid,line,uncross,12,2.60119891166687,0.43353315194447833,0.24556011796186428,3.775012969970703,[ 3.77501297 15.61533999 17.92709398 21.27956891 25.74347901 29.61539316],[ 4.06861711 15.95683193 18.90079904 21.56484509 26.15699792 29.90899587],"[0.29360413551330566, 0.3414919376373291, 0.9737050533294678, 0.2852761745452881, 0.41351890563964844, 0.29360270500183105]"
6,1ls.png,1cls.png,valid,line,uncross,8,4.215693473815918,1.0539233684539795,0.3731876142218161,7.6072838306427,[ 7.60728383 14.0393641  15.74317479 19.89528179],[ 9.02852082 14.49282598 16.78247809 21.19697309],"[1.4212369918823242, 0.4534618854522705, 1.0393033027648926, 1.3016912937164307]"
7,1ls.png,1cls.png,valid,line,uncross,12,3.5048422813415527,0.5841403802235922,0.4716119798281615,11.42330288887024,[11.42330289 16.28729081 19.7755971  22.30331993 26.14334798 30.39130068],[11.74071813 17.68463778 20.1488378  22.60486603 27.1890099  30.46093202],"[0.3174152374267578, 1.3973469734191895, 0.37324070930480957, 0.3015460968017578, 1.0456619262695312, 0.06963133811950684]"
8,15cls.png,15ls.png,invalid,da_Vinci,cross,10,3.675330638885498,0.7350661277770996,0.36496687340110057,3.6708221435546875,[ 3.67082214  8.62292194 16.63940716 20.47911811 24.78318524],[ 4.30046105  8.89251804 17.90847707 21.50866199 25.26066709],"[0.6296389102935791, 0.2695960998535156, 1.2690699100494385, 1.0295438766479492, 0.4774818420410156]"
9,1cls.png,testls.png,local,local_l,cross,12,13.381892919540405,2.2303154865900674,1.0429247488236357,2.070580005645752,[ 2.07058001  9.82308197 14.67071891 19.15096807 22.47879505 25.23887801],[ 4.54231286 11.83820176 17.54851294 20.90074277 22.91654181 29.0686028 ],"[2.4717328548431396, 2.015119791030884, 2.877794027328491, 1.749774694442749, 0.4377467632293701, 3.8297247886657715]"
10,15ls.png,15cls.png,valid,da_Vinci,uncross,4,0.6590588092803955,0.32952940464019775,0.044173598289489746,13.959125995635986,[13.959126   15.09474182],[14.2444818  15.46844482],"[0.285355806350708, 0.3737030029296875]"
11,1cls.png,testls.png,local,local_l,cross,16,12.006211996078491,1.5007764995098114,1.1553888147454743,2.590879201889038,"[ 2.5908792  10.33501315 11.65482688 13.50288415 20.15903711 22.27094603
 23.23087502 26.69562888]","[ 6.04444003 10.956388   12.1485889  16.93263912 21.27002692 22.98081923
 24.67670226 27.43669796]","[3.4535608291625977, 0.6213748455047607, 0.4937620162963867, 3.4297549724578857, 1.1109898090362549, 0.7098731994628906, 1.4458272457122803, 0.7410690784454346]"
12,15ls.png,1cls.png,valid,block,uncross,6,2.6721749305725098,0.8907249768575033,0.48468132156117366,18.90354299545288,[18.903543   24.16758394 24.7432251 ],[20.31685591 24.4128921  25.75677896],"[1.4133129119873047, 0.24530816078186035, 1.0135538578033447]"
13,1cls.png,15ls.png,invalid,block,cross,12,7.6175525188446045,1.2695920864741008,0.7735780643164644,4.815102815628052,[ 4.81510282  8.56685615 12.46308494 13.11093593 24.26330209 29.02313805],[ 6.82856607  9.72441411 12.66058421 13.652632   26.69279003 30.30098605],"[2.013463258743286, 1.1575579643249512, 0.19749927520751953, 0.5416960716247559, 2.429487943649292, 1.2778480052947998]"
14,1cls.png,15ls.png,invalid,block,cross,10,8.195520639419556,1.6391041278839111,0.6425614979798954,3.6787569522857666,[ 3.67875695  8.17490005 17.45513773 21.59105682 28.49545693],[ 4.50826073 10.76457787 18.47664785 23.54050374 30.30083895],"[0.8295037746429443, 2.5896778106689453, 1.021510124206543, 1.9494469165802002, 1.8053820133209229]"
15,1cls.png,15ls.png,invalid,block,cross,10,9.421290874481201,1.8842581748962401,0.794131400350717,2.8148670196533203,[ 2.81486702  8.87905717 17.28731608 25.04726911 29.47109294],[ 3.99624801 11.78238416 19.68467808 27.22875905 30.2288239 ],"[1.1813809871673584, 2.903326988220215, 2.397361993789673, 2.181489944458008, 0.7577309608459473]"
16,1cls.png,1ls.png,invalid,line,cross,14,6.863121032714844,0.9804458618164062,0.5961658048523741,4.134787082672119,"[ 4.13478708  8.95886397 17.06312299 20.16723299 22.97517514 27.00714493
 28.43898702]","[ 5.348382   10.95655107 17.54060102 21.41264606 24.31666303 27.2687459
 28.76484609]","[1.213594913482666, 1.9976871013641357, 0.47747802734375, 1.245413064956665, 1.3414878845214844, 0.26160097122192383, 0.32585906982421875]"
17,15cls.png,15ls.png,invalid,da_Vinci,cross,8,4.278006315231323,1.0695015788078308,0.4877860732187915,8.79137110710144,[ 8.79137111 15.39135599 20.85517597 26.87934399],[ 9.05260015 16.81253195 22.34075403 27.98936725],"[0.2612290382385254, 1.4211759567260742, 1.4855780601501465, 1.1100232601165771]"
18,1cls.png,15ls.png,invalid,block,cross,10,9.30767273902893,1.861534547805786,0.3123841915293419,4.83083701133728,[ 4.83083701 10.55889511 16.87125492 21.03888679 26.51094699],[ 6.78038287 11.82827377 18.7405591  23.09261584 28.67666197],"[1.9495458602905273, 1.269378662109375, 1.8693041801452637, 2.0537290573120117, 2.165714979171753]"
19,15ls.png,1cls.png,valid,block,uncross,2,1.4850571155548096,1.4850571155548096,0.0,23.191535711288452,[23.19153571],[24.67659283],[1.4850571155548096]
20,1ls.png,1cls.png,valid,line,uncross,10,3.4276697635650635,0.6855339527130127,0.41160638394482674,12.967151165008545,[12.96715117 15.10266399 17.19877005 20.35082126 25.27898026],[13.6602242  15.32441401 18.40445113 20.58052206 26.35644507],"[0.693073034286499, 0.22175002098083496, 1.2056810855865479, 0.22970080375671387, 1.0774648189544678]"
21,1cls.png,testls.png,local,local_l,cross,14,6.992056608200073,0.9988652297428676,0.644631198018257,5.255133867263794,"[ 5.25513387  7.47873306 10.79901505 17.99116206 18.97485304 22.39122987
 26.079072  ]","[ 5.82844996  9.22049618 11.26056409 18.10066199 19.66848207 24.06198716
 27.8206141 ]","[0.5733160972595215, 1.7417631149291992, 0.4615490436553955, 0.10949993133544922, 0.6936290264129639, 1.6707572937011719, 1.741542100906372]"
22,1cls.png,1ls.png,invalid,line,cross,20,1.6929023265838623,0.16929023265838622,1.310460928371302,5.271056175231934,"[ 5.27105618  5.91870308  7.25478315  9.83092308 11.88694501 15.31092811
 19.27126431 25.6553731  27.13489914 28.54317999]","[ 5.86025524  6.30048299  7.54051805 10.22059107 12.94854212 15.73263526
 20.42064714 26.36471605 27.50877833 24.87379122]","[0.5891990661621094, 0.38177990913391113, 0.2857348918914795, 0.38966798782348633, 1.0615971088409424, 0.4217071533203125, 1.1493828296661377, 0.7093429565429688, 0.37387919425964355, -3.669388771057129]"
23,testls.png,1cls.png,local,local_r,uncross,16,6.4711127281188965,0.8088890910148621,0.30067016396499524,7.239215135574341,"[ 7.23921514  9.9431479  12.18289614 16.05490923 17.74296904 19.71118307
 21.55914807 28.76768923]","[ 8.05260897 10.59915304 12.73254013 17.37285399 18.47665715 20.14081192
 22.8288691  29.46877623]","[0.8133938312530518, 0.6560051441192627, 0.5496439933776855, 1.3179447650909424, 0.7336881160736084, 0.429628849029541, 1.2697210311889648, 0.7010869979858398]"
24,1cls.png,15ls.png,invalid,block,cross,14,10.967095375061035,1.566727910723005,0.8285289591921574,3.438983917236328,"[ 3.43898392  5.70276809 10.55100203 16.29515386 21.89499998 24.23101306
 26.0228951 ]","[ 3.65224791  7.96448493 12.50850892 19.02045989 22.86073375 25.10868096
 27.98879504]","[0.21326398849487305, 2.261716842651367, 1.9575068950653076, 2.7253060340881348, 0.9657337665557861, 0.8776679039001465, 1.96589994430542]"
25,15ls.png,15cls.png,valid,da_Vinci,uncross,2,0.3653261661529541,0.3653261661529541,0.0,8.903205156326294,[8.90320516],[9.26853132],[0.3653261661529541]
26,15ls.png,15cls.png,valid,da_Vinci,uncross,2,0.693152904510498,0.693152904510498,0.0,20.92737102508545,[20.92737103],[21.62052393],[0.693152904510498]
27,15ls.png,1cls.png,valid,block,uncross,6,2.135934591293335,0.7119781970977783,0.042465747834746555,8.71117115020752,[ 8.71117115 19.63124013 23.96714616],[ 9.4763279  20.29246211 24.67670202],"[0.7651567459106445, 0.661221981048584, 0.7095558643341064]"
28,15ls.png,15cls.png,valid,da_Vinci,uncross,4,0.7866928577423096,0.3933464288711548,0.28395044803619385,23.919296979904175,[23.91929698 28.73526073],[24.59659386 28.84465671],"[0.6772968769073486, 0.10939598083496094]"
29,1cls.png,1ls.png,invalid,line,cross,20,12.840364933013916,1.2840364933013917,1.0892595721577152,2.8948910236358643,"[ 2.89489102  5.10299969  5.39078999  9.42309403 12.66287374 17.27077413
 18.27899504 23.53501487 27.06356692 28.350986  ]","[ 3.38857388  5.30845189  8.11635303 10.02851415 15.98872089 17.52461004
 20.44470286 24.02071881 27.68482494 30.30887985]","[0.493682861328125, 0.20545220375061035, 2.7255630493164062, 0.6054201126098633, 3.3258471488952637, 0.25383591651916504, 2.16570782661438, 0.4857039451599121, 0.621258020401001, 1.9578938484191895]"
30,testls.png,1cls.png,local,local_r,uncross,18,9.946855306625366,1.1052061451805963,0.5108103429983826,3.399036169052124,"[ 3.39903617  4.1193521   7.48702216  9.07884002 11.04695392 16.58315492
 19.70329714 23.83111405 28.09514809]","[ 3.70897722  4.70050097  8.38059807  9.96448708 12.69270015 17.83680415
 20.50083804 25.65290213 29.85296607]","[0.30994105339050293, 0.5811488628387451, 0.89357590675354, 0.8856470584869385, 1.6457462310791016, 1.2536492347717285, 0.7975409030914307, 1.8217880725860596, 1.7578179836273193]"
31,1cls.png,testls.png,local,local_l,cross,18,11.578611612319946,1.286512401368883,0.6601700270954051,3.28688907623291,"[ 3.28688908  5.55081916  7.31879497 11.99111605 13.59083009 18.49491715
 22.40718317 24.11100698 28.454983  ]","[ 4.540308    6.06054306  8.76453519 12.42863107 16.06062102 19.42847013
 23.14872599 26.08463788 30.2686789 ]","[1.2534189224243164, 0.5097239017486572, 1.4457402229309082, 0.4375150203704834, 2.4697909355163574, 0.9335529804229736, 0.7415428161621094, 1.9736309051513672, 1.8136959075927734]"
32,testls.png,1cls.png,local,local_r,uncross,16,8.142855644226074,1.0178569555282593,0.44472271350187403,2.7988059520721436,"[ 2.79880595  6.45491695  9.47878098 11.81498313 17.0391469  20.63110685
 25.05545902 27.88724494]","[ 3.52439904  8.00436687 10.02858782 12.73256588 17.46067905 22.391155
 26.34076691 28.8207798 ]","[0.725593090057373, 1.5494499206542969, 0.5498068332672119, 0.9175827503204346, 0.42153215408325195, 1.7600481510162354, 1.2853078842163086, 0.9335348606109619]"
33,15ls.png,1cls.png,valid,block,uncross,4,1.226353645324707,0.6131768226623535,0.047821044921875,11.3755521774292,[11.37555218 26.98362613],[12.03655005 27.5489819 ],"[0.6609978675842285, 0.5653557777404785]"
34,1cls.png,1ls.png,invalid,line,cross,20,7.9226062297821045,0.7922606229782104,0.44067348360459374,2.415217161178589,"[ 2.41521716  6.09510899  6.89483309  9.73487997 12.48716092 15.00695419
 16.26302195 18.77502608 21.42306018 26.34319091]","[ 2.90850186  6.50858903  7.6125741  10.77513409 13.28447509 15.29274416
 16.47672105 19.99675202 22.47686505 28.02870321]","[0.4932847023010254, 0.4134800434112549, 0.7177410125732422, 1.0402541160583496, 0.7973141670227051, 0.28578996658325195, 0.2136991024017334, 1.2217259407043457, 1.053804874420166, 1.6855123043060303]"
35,15cls.png,15ls.png,invalid,da_Vinci,cross,10,3.5007731914520264,0.7001546382904053,0.1841547950089527,11.279149055480957,[11.27914906 16.43098593 19.27088809 28.36748004 29.55912328],[12.15648603 17.26182818 19.62859893 29.04475522 30.31673121],"[0.8773369789123535, 0.8308422565460205, 0.3577108383178711, 0.6772751808166504, 0.7576079368591309]"
36,15ls.png,1cls.png,valid,block,uncross,8,5.437068462371826,1.3592671155929565,0.25814263263258075,8.767147064208984,[ 8.76714706 16.66337729 19.71905518 27.79949617],[10.11627531 17.70060515 21.01249838 29.55676532],"[1.349128246307373, 1.0372278690338135, 1.293443202972412, 1.7572691440582275]"
37,testls.png,1cls.png,local,local_r,uncross,20,9.543912410736084,0.9543912410736084,0.3750031553678314,1.6547729969024658,"[ 1.654773    3.97526073  6.09480977  9.41499066 12.68700075 15.33489156
 20.07926869 22.34306979 24.87099385 27.42317271]","[ 2.42856765  4.47647691  7.44453883 10.65253377 13.3966527  16.69242978
 20.62077379 23.72473478 25.30876493 28.67667079]","[0.7737946510314941, 0.5012161731719971, 1.349729061126709, 1.2375431060791016, 0.7096519470214844, 1.3575382232666016, 0.5415050983428955, 1.3816649913787842, 0.4377710819244385, 1.2534980773925781]"
38,15cls.png,15ls.png,invalid,da_Vinci,cross,14,4.254592180252075,0.6077988828931536,0.3375032913075671,4.8312718868255615,"[ 4.83127189  8.31108093 11.27899432 12.80695415 19.52729702 20.9351213
 29.03947496]","[ 5.22857904  8.82062912 11.84462309 13.1326642  19.76475596 21.94079208
 30.25274324]","[0.3973071575164795, 0.5095481872558594, 0.5656287670135498, 0.3257100582122803, 0.2374589443206787, 1.0056707859039307, 1.2132682800292969]"
39,15cls.png,15ls.png,invalid,da_Vinci,cross,18,8.314450979232788,0.9238278865814209,0.7515510168610497,5.19145393371582,"[ 5.19145393 10.58302093 13.91095281 14.7348938  16.63088489 20.95111394
 25.25540495 28.66322303 29.73505092]","[ 5.46051884 12.34057903 14.41264296 15.62064195 18.90082979 21.10068393
 26.98884988 28.80482292 30.34088087]","[0.26906490325927734, 1.7575581073760986, 0.501690149307251, 0.8857481479644775, 2.269944906234741, 0.14956998825073242, 1.7334449291229248, 0.1415998935699463, 0.6058299541473389]"
40,15ls.png,15cls.png,valid,da_Vinci,uncross,0,0.0,0.0,0.0,30.0,[],[],[]
