trial,right_eye,left_eye,validity,stim_cnd,disparity,transient_counts,cdt,mdt,dtstd,latency,press_timing,release_timing,key_press_list
1,1ls.png,1cls.png,valid,line,uncross,6,9.777109146118164,3.259036382039388,1.114022981287409,11.677304983139038,[11.67730498 15.44472075 23.06109476],[13.63438392 18.58645797 27.73938775],"[1.9570789337158203, 3.141737222671509, 4.678292989730835]"
2,1cls.png,testls.png,local,local_l,cross,8,8.36763334274292,2.09190833568573,1.0023028109282097,11.335309028625488,[11.33530903 18.09560609 22.23940396 28.55957818],[13.72725701 18.82863617 25.73288417 30.30875325],"[2.3919479846954346, 0.7330300807952881, 3.4934802055358887, 1.7491750717163086]"
3,15ls.png,1cls.png,valid,block,uncross,4,2.0184812545776367,1.0092406272888184,0.14793753623962402,16.319464921951294,[16.31946492 27.26363087],[17.18076801 28.42080903],"[0.8613030910491943, 1.1571781635284424]"
4,testls.png,1cls.png,local,local_r,uncross,12,11.089254140853882,1.848209023475647,1.0737676931486535,3.238903045654297,[ 3.23890305  7.65513086 16.2793591  18.23906994 26.13551903 29.59128904],[ 5.05261326  9.37249303 16.80475807 21.74080586 28.99692106 30.26093388],"[1.8137102127075195, 1.7173621654510498, 0.5253989696502686, 3.5017359256744385, 2.8614020347595215, 0.669644832611084]"
5,1cls.png,1ls.png,invalid,line,cross,6,8.82426905632019,2.941423018773397,0.8073619450976164,4.4471940994262695,[ 4.4471941  12.415344   22.47951603],[ 8.50866199 14.98877215 24.66888905],"[4.061467885971069, 2.573428153991699, 2.189373016357422]"
6,15ls.png,1cls.png,valid,block,uncross,4,2.322695732116699,1.1613478660583496,0.3079261779785156,23.687477111816406,[23.68747711 26.94352102],[24.5408988  28.41279507],"[0.853421688079834, 1.4692740440368652]"
7,15ls.png,15cls.png,valid,da_Vinci,uncross,4,5.898558139801025,2.9492790699005127,0.2638509273529053,12.975350856781006,[12.97535086 23.59958792],[15.660779   26.81271791],"[2.6854281425476074, 3.213129997253418]"
8,15ls.png,1cls.png,valid,block,uncross,8,5.1416637897491455,1.2854159474372864,1.3403520883441427,1.3031580448150635,[ 1.30315804  7.73534584 12.9753449  20.359447  ],[ 1.38865495  8.76463485 16.50877285 20.85289693],"[0.08549690246582031, 1.0292890071868896, 3.5334279537200928, 0.4934499263763428]"
9,15ls.png,1cls.png,valid,block,uncross,8,5.637561559677124,1.409390389919281,0.7126155844450509,5.103278160095215,[ 5.10327816  7.75912285 14.21543694 21.64761209],[ 6.02867699  8.47665882 15.65280986 24.20486593],"[0.9253988265991211, 0.7175359725952148, 1.4373729228973389, 2.557253837585449]"
10,1cls.png,testls.png,local,local_l,cross,8,10.109375476837158,2.5273438692092896,0.4441417785111673,5.831231117248535,[ 5.83123112 12.60721326 16.88731599 21.67931128],[ 8.99644923 14.51662636 19.39672518 24.20464635],"[3.1652181148529053, 1.9094130992889404, 2.509409189224243, 2.5253350734710693]"
11,1cls.png,testls.png,local,local_l,cross,10,10.819355964660645,2.163871192932129,0.6026406895938622,2.0627200603485107,[ 2.06272006  6.02274084 10.4707458  16.83907986 26.30329394],[ 3.21212602  8.31637979 12.41225982 19.78850412 28.78866673],"[1.1494059562683105, 2.2936389446258545, 1.941514015197754, 2.9494242668151855, 2.48537278175354]"
12,1cls.png,1ls.png,invalid,line,cross,12,8.040340423583984,1.3400567372639973,0.5929331551659922,2.767247200012207,[ 2.7672472   7.78326106 14.55937099 15.92718697 20.60729408 25.73540401],[ 3.8204062  10.00451803 15.13279414 16.89275813 22.65268707 26.91694117],"[1.0531589984893799, 2.221256971359253, 0.5734231472015381, 0.9655711650848389, 2.0453929901123047, 1.18153715133667]"
13,1ls.png,1cls.png,valid,line,uncross,6,7.553333282470703,2.517777760823568,0.6612673416291631,7.087239980697632,[ 7.08723998 19.41536903 27.91148615],[ 8.82857704 22.77277231 30.36607909],"[1.7413370609283447, 3.35740327835083, 2.4545929431915283]"
14,15cls.png,15ls.png,invalid,da_Vinci,cross,8,6.7019922733306885,1.6754980683326721,1.1179048879219327,5.167253017425537,[ 5.16725302  7.11916995 11.91928911 21.1355021 ],[ 5.69274807  7.79666615 15.10085917 23.45293307],"[0.5254950523376465, 0.6774961948394775, 3.181570053100586, 2.3174309730529785]"
15,15cls.png,15ls.png,invalid,da_Vinci,cross,2,1.8053679466247559,1.8053679466247559,0.0,18.5195472240448,[18.51954722],[20.32491517],[1.8053679466247559]
16,15cls.png,15ls.png,invalid,da_Vinci,cross,8,3.053476333618164,0.763369083404541,0.316228655444669,10.439169883728027,[10.43916988 12.56714892 20.38339996 29.51950908],[10.83666706 13.81261396 20.97253323 30.34088993],"[0.39749717712402344, 1.2454650402069092, 0.5891332626342773, 0.8213808536529541]"
17,1cls.png,testls.png,local,local_l,cross,8,9.109464406967163,2.2773661017417908,0.9587529852917336,1.934786081314087,[ 1.93478608  8.03904891 12.71889782 18.84718013],[ 5.35616112  8.89247799 15.52436209 20.87637615],"[3.421375036239624, 0.8534290790557861, 2.805464267730713, 2.02919602394104]"
18,testls.png,1cls.png,local,local_r,uncross,6,5.264535188674927,1.7548450628916423,1.4461200918156303,7.127303838729858,[ 7.12730384 19.40725684 29.75143385],[10.916682   20.32483888 30.30900884],"[3.7893781661987305, 0.9175820350646973, 0.557574987411499]"
19,1ls.png,1cls.png,valid,line,uncross,8,7.901682138442993,1.9754205346107483,0.9090577542334352,11.551462888717651,[11.55146289 19.12744498 22.76723981 29.28741789],[13.05275488 21.02069592 26.22896099 30.33283591],"[1.5012919902801514, 1.8932509422302246, 3.461721181869507, 1.0454180240631104]"
20,15cls.png,15ls.png,invalid,da_Vinci,cross,8,5.453667163848877,1.3634167909622192,0.6203446844560395,4.967327117919922,[ 4.96732712 11.72754598 19.055583   25.8716712 ],[ 6.62876129 13.59685206 19.35695601 27.4932251 ],"[1.6614341735839844, 1.8693060874938965, 0.3013730049133301, 1.621553897857666]"
21,testls.png,1cls.png,local,local_r,uncross,8,6.109120845794678,1.5272802114486694,0.9876272650353252,9.527298927307129,[ 9.52729893 16.74340582 19.78347301 26.75977397],[12.65271306 17.18087578 20.93266487 28.15681887],"[3.1254141330718994, 0.4374699592590332, 1.1491918563842773, 1.3970448970794678]"
22,1cls.png,1ls.png,invalid,line,cross,8,7.397831916809082,1.8494579792022705,0.6842514934666101,9.74337387084961,[ 9.74337387 14.70301199 17.77509594 23.68734312],[12.22856498 15.40464306 19.78055787 25.89289093],"[2.4851911067962646, 0.7016310691833496, 2.0054619312286377, 2.20554780960083]"
23,15cls.png,15ls.png,invalid,da_Vinci,cross,12,7.8908371925354,1.3151395320892334,0.7135721356101826,3.471207857131958,[ 3.47120786 10.42316413 12.44701099 21.16746688 25.85537195 29.58346486],[ 5.83655119 11.39643312 13.73263884 23.30319095 26.28485179 30.28485799],"[2.3653433322906494, 0.973268985748291, 1.285627841949463, 2.1357240676879883, 0.42947983741760254, 0.7013931274414062]"
24,15ls.png,15cls.png,valid,da_Vinci,uncross,4,1.6906359195709229,0.8453179597854614,0.5039759874343872,11.207300901412964,[11.2073009  27.94356298],[11.54864287 29.29285693],"[0.3413419723510742, 1.3492939472198486]"
25,1cls.png,1ls.png,invalid,line,cross,8,8.573944091796875,2.1434860229492188,1.0775661938832923,1.8949759006500244,[ 1.8949759   4.8950448  18.59933805 25.71939206],[ 3.10850883  6.86066103 22.54863596 27.1648891 ],"[1.2135329246520996, 1.965616226196289, 3.9492979049682617, 1.4454970359802246]"
26,15ls.png,1cls.png,valid,block,uncross,6,3.352031946182251,1.1173439820607503,0.9462587360079373,16.719513177871704,[16.71951318 21.94360137 29.26354623],[17.23685241 24.39685512 29.6449852 ],"[0.5173392295837402, 2.453253746032715, 0.3814389705657959]"
27,testls.png,1cls.png,local,local_r,uncross,16,6.588660001754761,0.8235825002193451,0.551329581041469,4.663143157958984,"[ 4.66314316  7.12716413 11.66331506 15.78333998 19.31951904 24.33539391
 26.50370717 27.30316687]","[ 5.23678994  8.94856906 12.00477505 16.36490011 20.99695206 24.85335493
 27.26100802 27.62106013]","[0.5736467838287354, 1.8214049339294434, 0.3414599895477295, 0.5815601348876953, 1.6774330139160156, 0.5179610252380371, 0.757300853729248, 0.31789326667785645]"
28,1cls.png,15ls.png,invalid,block,cross,8,6.6226794719696045,1.6556698679924011,0.41691638161560673,4.0472571849823,[ 4.04725718  7.95113707 14.00732327 26.5197103 ],[ 5.644696   10.2045691  15.08580303 28.21303916],"[1.5974388122558594, 2.253432035446167, 1.0784797668457031, 1.693328857421875]"
29,1cls.png,1ls.png,invalid,line,cross,12,9.378016233444214,1.5630027055740356,0.48687676291384874,3.6870880126953125,[ 3.68708801  9.96709585 12.84703398 14.90331101 22.11948299 28.10344625],[ 5.30837798 11.62848806 13.38140917 16.78139305 23.740906   30.16490006],"[1.6212899684906006, 1.6613922119140625, 0.5343751907348633, 1.878082036972046, 1.6214230060577393, 2.0614538192749023]"
30,testls.png,1cls.png,local,local_r,uncross,10,13.251342296600342,2.6502684593200683,1.691697010895436,3.078988790512085,[ 3.07898879  9.23916388 13.67110777 21.76745582 29.37565279],[ 6.39665675 11.65267992 19.20459986 22.80478907 30.32498574],"[3.3176679611206055, 2.413516044616699, 5.533492088317871, 1.0373332500457764, 0.9493329524993896]"
31,1ls.png,1cls.png,valid,line,uncross,8,7.309990882873535,1.8274977207183838,0.49833098028987655,3.1672518253326416,[ 3.16725183  7.49521923 12.47925282 18.27933192],[ 4.95665193  8.836694   15.12482977 19.81287098],"[1.7894001007080078, 1.3414747714996338, 2.6455769538879395, 1.533539056777954]"
32,15ls.png,15cls.png,valid,da_Vinci,uncross,8,8.2529456615448,2.0632364153862,0.7375846608060929,8.471216201782227,[ 8.4712162  14.34345007 20.53527808 26.83938313],[10.94837618 17.31648707 21.54875302 28.62865686],"[2.4771599769592285, 2.973037004470825, 1.013474941253662, 1.789273738861084]"
33,1ls.png,1cls.png,valid,line,uncross,10,10.48305082321167,2.096610164642334,0.8475985688169498,5.1271889209747314,[ 5.12718892 10.33507085 17.39131689 20.89520097 27.71162391],[ 6.67661691 13.7567029  18.43668985 23.57266784 29.50077486],"[1.5494279861450195, 3.4216320514678955, 1.0453729629516602, 2.677466869354248, 1.7891509532928467]"
34,1cls.png,testls.png,local,local_l,cross,10,10.283201932907104,2.056640386581421,0.8185509815200113,4.647093057632446,[ 4.64709306  8.13510394 11.47116685 17.75935888 27.07149076],[ 6.34063196  9.49248481 14.33256984 20.95685101 28.24487782],"[1.6935389041900635, 1.3573808670043945, 2.861402988433838, 3.1974921226501465, 1.173387050628662]"
35,1cls.png,15ls.png,invalid,block,cross,12,7.512725591659546,1.2521209319432576,0.5369956893108068,11.391312837600708,[11.39131284 14.6711278  17.2714057  20.26343393 23.35140467 26.99146581],[12.69274378 15.66073966 18.40477371 20.82893372 24.54073381 29.32495165],"[1.3014309406280518, 0.9896118640899658, 1.1333680152893066, 0.5654997825622559, 1.1893291473388672, 2.3334858417510986]"
36,1cls.png,15ls.png,invalid,block,cross,10,10.651256084442139,2.1302512168884276,1.206399171349617,4.175151109695435,[ 4.17515111 17.77559304 20.27126026 26.23139405 28.83943725],[ 8.43671918 18.78864527 22.91684103 27.43695211 30.36493421],"[4.261568069458008, 1.013052225112915, 2.645580768585205, 1.2055580615997314, 1.5254969596862793]"
37,1cls.png,15ls.png,invalid,block,cross,10,8.315059900283813,1.6630119800567627,0.535030263592854,4.439319133758545,[ 4.43931913  7.59938216 12.31906509 19.67149019 28.66376114],[ 5.74069118  9.26069808 14.236727   22.17298412 29.59697723],"[1.3013720512390137, 1.66131591796875, 1.9176619052886963, 2.5014939308166504, 0.9332160949707031]"
38,15ls.png,15cls.png,valid,da_Vinci,uncross,4,3.0587639808654785,1.5293819904327393,0.7720291614532471,11.455355882644653,[11.45535588 22.23956108],[13.75676703 22.99691391],"[2.3014111518859863, 0.7573528289794922]"
39,1cls.png,15ls.png,invalid,block,cross,10,8.147496461868286,1.6294992923736573,0.49642343252255994,6.287442922592163,[ 6.28744292 10.27137303 14.27129984 18.30332375 23.55938292],[ 8.00453663 11.0052948  15.85283875 20.5248518  25.45279694],"[1.7170937061309814, 0.7339217662811279, 1.5815389156341553, 2.2215280532836914, 1.89341402053833]"
40,15ls.png,15cls.png,valid,da_Vinci,uncross,6,4.936257600784302,1.6454192002614338,0.2420894952240413,5.703204154968262,[ 5.70320415 11.26308823 22.2316432 ],[ 7.23664904 13.24468613 23.65285802],"[1.533444881439209, 1.981597900390625, 1.4212148189544678]"
