trial,right_eye,left_eye,validity,stim_cnd,disparity,transient_counts,cdt,mdt,dtstd,latency,press_timing,release_timing,key_press_list
1,1cls.png,1ls.png,invalid,line,cross,24,11.091633081436157,0.9243027567863464,0.624598745622269,4.006183862686157,"[ 4.00618386  7.11016297  9.47015405 10.73388481 13.70204592 16.3582468
 18.02997303 20.390311   22.3500421  25.87853312 26.7821219  28.36614394]","[ 4.34759498  8.35555887 10.61162019 10.79562211 13.84365797 17.1716311
 19.20351505 20.89991021 24.476794   26.37986207 27.93968701 30.24398303]","[0.34141111373901367, 1.2453958988189697, 1.1414661407470703, 0.0617372989654541, 0.14161205291748047, 0.8133842945098877, 1.1735420227050781, 0.5095992088317871, 2.1267518997192383, 0.5013289451599121, 1.1575651168823242, 1.8778390884399414]"
2,1cls.png,15ls.png,invalid,block,cross,14,8.982801675796509,1.2832573822566442,0.4644233905942168,4.367098808288574,"[ 4.36709881  9.43924403 13.08710885 18.35925603 21.25529075 22.23908877
 26.33546805]","[ 5.60463691 11.48471594 14.04471183 19.35690975 21.81287074 23.93271971
 27.8287921 ]","[1.2375380992889404, 2.0454719066619873, 0.9576029777526855, 0.9976537227630615, 0.5575799942016602, 1.6936309337615967, 1.4933240413665771]"
3,15cls.png,15ls.png,invalid,da_Vinci,cross,8,0.9418818950653076,0.2354704737663269,0.0680139832964919,6.031264066696167,[ 6.03126407 10.32698298 13.40676093 22.71133089],[ 6.18839288 10.58848095 13.59655404 23.04479289],"[0.15712881088256836, 0.26149797439575195, 0.18979310989379883, 0.3334619998931885]"
4,1cls.png,testls.png,local,local_l,cross,18,12.515050411224365,1.3905611568027072,0.8653633614399219,1.215003252029419,"[ 1.21500325  4.19076824  6.39874411 10.65496612 16.47924614 19.07923007
 21.67116427 25.95140314 28.72736907]","[ 3.31806636  4.70843911  8.09243226 13.41251016 16.76461315 20.37248635
 24.02066112 26.18091702 30.01281929]","[2.1030631065368652, 0.5176708698272705, 1.693688154220581, 2.7575440406799316, 0.2853670120239258, 1.2932562828063965, 2.349496841430664, 0.22951388359069824, 1.2854502201080322]"
5,15ls.png,1cls.png,valid,block,uncross,12,2.784484386444092,0.4640807310740153,0.3365996409185368,5.375124931335449,[ 5.37512493 11.29522896 12.9667809  16.60706401 17.47897911 26.59960294],[ 5.72441912 11.56448698 13.23650789 16.94860911 17.82063413 27.812608  ],"[0.34929418563842773, 0.2692580223083496, 0.2697269916534424, 0.34154510498046875, 0.34165501594543457, 1.2130050659179688]"
6,testls.png,1cls.png,local,local_r,uncross,18,5.795897006988525,0.6439885563320584,0.4691413974250442,5.967051982879639,"[ 5.96705198 10.6789391  12.06286788 14.27872777 16.55930901 18.31108999
 19.85486794 24.79918694 26.55115795]","[ 6.08449793 11.03656006 13.54849696 15.06857014 17.86863995 18.47661781
 20.09263682 25.30072498 27.38235092]","[0.1174459457397461, 0.3576209545135498, 1.4856290817260742, 0.7898423671722412, 1.309330940246582, 0.1655278205871582, 0.23776888847351074, 0.5015380382537842, 0.8311929702758789]"
7,1ls.png,1cls.png,valid,line,uncross,20,3.7756266593933105,0.3775626659393311,0.32361420799888546,5.5350611209869385,"[ 5.53506112 12.67130709 15.13501692 16.08695602 20.71125293 22.19902992
 23.32701325 25.43129492 27.28708005 29.42304802]","[ 5.74841595 12.94058299 15.41257596 16.31653714 20.99667192 22.40474701
 23.54878998 25.80476284 28.62079406 29.78880906]","[0.21335482597351074, 0.2692759037017822, 0.2775590419769287, 0.22958111763000488, 0.2854189872741699, 0.2057170867919922, 0.22177672386169434, 0.37346792221069336, 1.3337140083312988, 0.36576104164123535]"
8,1cls.png,15ls.png,invalid,block,cross,8,7.197880506515503,1.7994701266288757,1.2111921700828256,9.863269090652466,[ 9.86326909 12.96715307 18.45539308 26.44758224],[11.08471489 13.18871403 20.73282504 29.92502403],"[1.2214457988739014, 0.22156095504760742, 2.2774319648742676, 3.4774417877197266]"
9,1cls.png,testls.png,local,local_l,cross,14,15.335338592529297,2.1907626560756137,1.8810867022605409,1.134793996810913,"[ 1.134794    7.09527302 11.27095199 15.85516214 25.07938719 26.76729298
 29.9275279 ]","[ 3.10040498  9.30066609 14.06914616 22.21272111 25.91676211 27.38899708
 30.47703028]","[1.9656109809875488, 2.205393075942993, 2.798194169998169, 6.357558965682983, 0.8373749256134033, 0.6217041015625, 0.5495023727416992]"
10,1cls.png,testls.png,local,local_l,cross,22,15.463741302490234,1.4057946638627485,1.0514416890064053,0.8710949420928955,"[ 0.87109494  1.87877607  5.9832449   7.36687088  9.67075396 14.96682477
 17.5510149  18.59078884 19.0868299  22.65520477 29.23923397]","[ 1.31644368  4.28451681  6.4925499   8.52455592 12.19639182 16.29261899
 18.48642468 18.65269184 20.31666493 26.49266577 30.26885486]","[0.44534873962402344, 2.405740737915039, 0.5093050003051758, 1.1576850414276123, 2.5256378650665283, 1.3257942199707031, 0.9354097843170166, 0.06190299987792969, 1.229835033416748, 3.837460994720459, 1.029620885848999]"
11,1cls.png,1ls.png,invalid,line,cross,18,4.321758031845093,0.480195336871677,0.3631172121585217,8.735193967819214,"[ 8.73519397 10.44681096 12.23899293 13.07906795 16.85514522 20.10326314
 21.95924902 23.68721509 29.31949711]","[ 9.54861093 10.87659883 12.40458298 14.45267296 17.23677087 20.50872588
 22.1887641  23.91659307 29.61287379]","[0.8134169578552246, 0.42978787422180176, 0.1655900478363037, 1.3736050128936768, 0.3816256523132324, 0.40546274185180664, 0.22951507568359375, 0.22937798500061035, 0.2933766841888428]"
12,1cls.png,15ls.png,invalid,block,cross,10,7.1818859577178955,1.436377191543579,1.293623586547005,6.359131097793579,[ 6.3591311   9.29490399 13.47911596 23.43933821 26.78313589],[ 7.076509    9.50056696 17.36698318 24.30859995 28.28485203],"[0.7173779010772705, 0.20566296577453613, 3.8878672122955322, 0.8692617416381836, 1.501716136932373]"
13,15ls.png,15cls.png,valid,da_Vinci,uncross,18,4.298430919647217,0.4776034355163574,0.6590997492103805,3.615225076675415,"[ 3.61522508 10.18344402 12.58332419 21.32743692 22.27121615 23.32725906
 24.5911212  25.64715314 29.75117612]","[ 3.812644   10.38867807 12.76479888 21.48490596 22.60490894 23.61290383
 24.92495704 27.98095202 30.02103806]","[0.1974189281463623, 0.20523405075073242, 0.1814746856689453, 0.1574690341949463, 0.3336927890777588, 0.2856447696685791, 0.3338358402252197, 2.333798885345459, 0.26986193656921387]"
14,1cls.png,1ls.png,invalid,line,cross,18,7.13891077041626,0.7932123078240289,0.33400324509106166,4.023188352584839,"[ 4.02318835  6.7268672   9.84707022 12.91912818 13.99094415 15.92730236
 21.8632493  27.23144603 29.03124142]","[ 4.66058421  7.42041326 10.74058533 13.15666628 14.50073123 16.53273702
 23.12467813 28.55675817 30.00619435]","[0.6373958587646484, 0.6935460567474365, 0.8935151100158691, 0.23753809928894043, 0.5097870826721191, 0.6054346561431885, 1.2614288330078125, 1.3253121376037598, 0.9749529361724854]"
15,testls.png,1cls.png,local,local_r,uncross,28,8.430882930755615,0.602205923625401,0.5288480052370467,2.0948431491851807,"[ 2.09484315  3.14274716  4.854954    6.08685112 10.06311607 11.24699211
 12.18288732 13.566998   14.70310307 17.72716427 19.93524098 22.86318016
 24.56748009 28.71131015]","[ 2.29252911  3.34053612  5.22056818  7.02845311 10.50065732 11.50076413
 12.41265321 13.98868036 15.02073026 18.39659524 21.6366322  23.06913114
 26.45288706 29.31693316]","[0.19768595695495605, 0.19778895378112793, 0.3656141757965088, 0.9416019916534424, 0.43754124641418457, 0.2537720203399658, 0.2297658920288086, 0.42168235778808594, 0.3176271915435791, 0.6694309711456299, 1.7013912200927734, 0.20595097541809082, 1.8854069709777832, 0.6056230068206787]"
16,1ls.png,1cls.png,valid,line,uncross,30,4.891657590866089,0.3261105060577393,0.20166572204873137,4.375198125839233,"[ 4.37519813  5.60690904  9.94308996 11.16701412 11.82296515 12.71099401
 16.30358911 17.29503083 18.3510828  22.96738505 24.32739019 24.95179796
 26.63921595 27.93532801 30.0875392 ]","[ 4.66861892  5.85269594 10.42069793 11.30085325 12.11671996 13.54857206
 16.5968051  17.58075786 18.53287005 23.16497016 24.59686708 25.64476895
 27.06896806 27.98093295 30.30108881]","[0.29342079162597656, 0.2457869052886963, 0.47760796546936035, 0.13383913040161133, 0.29375481605529785, 0.8375780582427979, 0.2932159900665283, 0.28572702407836914, 0.18178725242614746, 0.1975851058959961, 0.26947689056396484, 0.6929709911346436, 0.4297521114349365, 0.04560494422912598, 0.21354961395263672]"
17,15ls.png,15cls.png,valid,da_Vinci,uncross,16,1.8914289474487305,0.2364286184310913,0.1035410753094409,5.455063819885254,"[ 5.45506382  8.76714396 11.86322284 14.85489488 16.78314185 22.66349602
 26.80723882 28.74335885]","[ 5.78843379  8.9644618  12.300488   15.03660393 17.01256084 22.82870293
 27.07694793 28.82079077]","[0.3333699703216553, 0.19731783866882324, 0.43726515769958496, 0.18170905113220215, 0.22941899299621582, 0.1652069091796875, 0.26970911026000977, 0.07743191719055176]"
18,15ls.png,15cls.png,valid,da_Vinci,uncross,16,8.436766147613525,1.0545957684516907,0.8699209877739545,12.703253030776978,"[12.70325303 16.09527683 18.81536913 20.51096201 21.14303303 21.8950119
 24.87915087 28.03119016]","[12.88464403 17.12468314 20.43676877 20.54070497 21.23677802 23.06877923
 27.56482387 29.65283108]","[0.18139100074768066, 1.0294063091278076, 1.6213996410369873, 0.029742956161499023, 0.09374499320983887, 1.173767328262329, 2.6856729984283447, 1.621640920639038]"
19,1ls.png,1cls.png,valid,line,uncross,24,7.491791009902954,0.6243159174919128,0.4547717647131777,6.431191682815552,"[ 6.43119168  7.4548018  12.43923187 13.87093687 14.59895682 16.3272059
 18.1109798  20.72714496 21.97501969 23.31107306 26.11114097 29.76728606]","[ 6.88455296  8.90055084 12.67670083 14.20465779 15.28467107 17.32474971
 18.59669685 21.02878785 22.27681589 24.92481494 26.48488283 30.02887893]","[0.45336127281188965, 1.445749044418335, 0.23746895790100098, 0.3337209224700928, 0.6857142448425293, 0.9975438117980957, 0.4857170581817627, 0.30164289474487305, 0.30179619789123535, 1.6137418746948242, 0.37374186515808105, 0.2615928649902344]"
20,1cls.png,testls.png,local,local_l,cross,12,14.193637132644653,2.365606188774109,1.8357287459493046,2.2389721870422363,[ 2.23897219  3.17513013  8.57501316 12.09521413 20.59944415 27.51944208],[ 2.82068515  6.98865819  9.01282024 15.13277721 25.94106913 28.50084305],"[0.5817129611968994, 3.813528060913086, 0.4378070831298828, 3.0375630855560303, 5.341624975204468, 0.9814009666442871]"
21,1cls.png,testls.png,local,local_l,cross,12,11.737449884414673,1.9562416474024455,1.5432149723842936,1.3589320182800293,[ 1.35893202  2.11871195  5.03881812  9.00679207 15.51937604 23.71929407],[ 1.98845506  2.22846103  6.06849504 11.62860084 18.21268106 28.37268114],"[0.6295230388641357, 0.10974907875061035, 1.029676914215088, 2.6218087673187256, 2.693305015563965, 4.653387069702148]"
22,15ls.png,1cls.png,valid,block,uncross,18,6.953909158706665,0.7726565731896294,0.6198212032993169,3.7112200260162354,"[ 3.71122003  6.51879811 10.03901815 11.08684111 14.44698811 20.45507836
 22.86301112 25.40709138 27.64739418]","[ 3.90031004  6.81249738 10.43656015 11.92441821 16.63659716 21.37266111
 24.22860336 25.95686817 27.86083412]","[0.18909001350402832, 0.2936992645263672, 0.39754199981689453, 0.8375771045684814, 2.1896090507507324, 0.9175827503204346, 1.3655922412872314, 0.5497767925262451, 0.21343994140625]"
23,15ls.png,15cls.png,valid,da_Vinci,uncross,12,3.5527520179748535,0.5921253363291422,0.6493271956072825,4.455132007598877,[ 4.45513201  6.02285719 12.59130788 16.35913587 20.19925332 29.66367006],[ 4.70055914  6.26055002 12.74068022 16.65272808 22.20486498 30.2847259 ],"[0.24542713165283203, 0.23769283294677734, 0.14937233924865723, 0.2935922145843506, 2.0056116580963135, 0.6210558414459229]"
24,15cls.png,15ls.png,invalid,da_Vinci,cross,10,1.227496862411499,0.2454993724822998,0.03236729246749133,6.303220987319946,[ 6.30322099 12.56707478 22.09544778 24.1271069  30.11146402],[ 6.57253385 12.82882881 22.37276602 24.35679483 30.30088782],"[0.26931285858154297, 0.26175403594970703, 0.27731823921203613, 0.22968792915344238, 0.1894237995147705]"
25,15cls.png,15ls.png,invalid,da_Vinci,cross,8,1.8457438945770264,0.4614359736442566,0.20658466025460576,16.103333234786987,[16.10333323 23.88745308 25.40690517 28.39116693],[16.35662317 24.15673113 25.99659801 29.12465   ],"[0.25328993797302246, 0.26927804946899414, 0.5896928310394287, 0.733483076095581]"
26,1ls.png,1cls.png,valid,line,uncross,22,6.173343658447266,0.5612130598588423,0.36849696228881523,2.974780797958374,"[ 2.9747808   6.06289291 10.55115891 11.98290205 14.53502417 16.85536575
 18.99108291 20.55104685 26.03938508 27.33516312 29.25516796]","[ 3.1804688   6.86036086 11.30070996 13.30850196 14.80467892 17.28474092
 19.30877686 20.86065102 26.21291685 28.45265603 29.73285198]","[0.2056879997253418, 0.7974679470062256, 0.7495510578155518, 1.3255999088287354, 0.2696547508239746, 0.42937517166137695, 0.31769394874572754, 0.3096041679382324, 0.17353177070617676, 1.117492914199829, 0.47768402099609375]"
27,1cls.png,1ls.png,invalid,line,cross,22,5.799097776412964,0.5271907069466331,0.29588140842271093,2.742922306060791,"[ 2.74292231 10.71130013 12.96707511 13.63109016 15.23109818 16.88714123
 18.07106805 20.1591773  21.3270812  23.68716621 29.23951316]","[ 3.3247149  10.98868608 13.3087101  14.38871217 15.7807982  17.2208221
 19.19682717 20.60482812 22.30175304 23.88488698 29.45299196]","[0.5817925930023193, 0.277385950088501, 0.34163498878479004, 0.7576220035552979, 0.5497000217437744, 0.3336808681488037, 1.1257591247558594, 0.4456508159637451, 0.9746718406677246, 0.19772076606750488, 0.21347880363464355]"
28,1cls.png,15ls.png,invalid,block,cross,10,7.588081121444702,1.5176162242889404,0.782211291971675,5.215189218521118,[ 5.21518922 14.51923513 19.43160987 24.71929502 27.43933392],[ 6.70860291 16.22070503 20.59676123 25.13288808 30.25378704],"[1.4934136867523193, 1.701469898223877, 1.1651513576507568, 0.413593053817749, 2.814453125]"
29,15cls.png,15ls.png,invalid,da_Vinci,cross,6,1.8325507640838623,0.6108502546946207,0.30210766089919144,16.631534099578857,[16.6315341  26.23165798 28.70309496],[16.91688704 27.24492788 29.23702288],"[0.2853529453277588, 1.0132699012756348, 0.5339279174804688]"
30,testls.png,1cls.png,local,local_r,uncross,26,6.9934446811676025,0.5379572831667386,0.6566794248597709,3.2708327770233154,"[ 3.27083278  5.45503783  8.15881705  9.33471799 10.24668694 12.9348259
 14.63880801 16.35096908 17.5750761  19.66308784 20.63094711 23.759022
 29.07908201]","[ 3.51639295  5.74846888  8.30841804  9.50042295 10.42859006 13.34050894
 14.86845684 16.57267094 18.02064896 20.02864695 21.16469407 26.41258287
 30.18085289]","[0.2455601692199707, 0.29343104362487793, 0.14960098266601562, 0.16570496559143066, 0.18190312385559082, 0.4056830406188965, 0.22964882850646973, 0.22170186042785645, 0.4455728530883789, 0.36555910110473633, 0.5337469577789307, 2.6535608768463135, 1.1017708778381348]"
31,1ls.png,1cls.png,valid,line,uncross,30,7.028963327407837,0.4685975551605225,0.2472915811033064,2.470895767211914,"[ 2.47089577  5.46312761  6.5907867   8.3508327   9.51078463 11.20688367
 11.98277473 12.98301959 14.8548398  16.57490873 18.89499378 19.83098578
 20.83066082 22.35902166 24.35106778]","[ 2.67639089  5.70845175  7.01243186  8.87656879 10.07648468 11.47656178
 12.31652474 14.2523818  15.49258494 16.97272778 19.28465366 20.1486578
 21.19668293 22.91674185 24.87670183]","[0.20549511909484863, 0.24532413482666016, 0.4216451644897461, 0.5257360935211182, 0.5657000541687012, 0.26967811584472656, 0.33375000953674316, 1.269362211227417, 0.6377451419830322, 0.39781904220581055, 0.3896598815917969, 0.3176720142364502, 0.36602210998535156, 0.5577201843261719, 0.5256340503692627]"
32,15ls.png,1cls.png,valid,block,uncross,18,7.115543842315674,0.7906159824795194,0.5260532433685915,3.5429179668426514,"[ 3.54291797 10.45527697 11.58298683 13.98313999 14.66302681 19.64752102
 23.59921813 26.26333594 27.8072989 ]","[ 4.37394595 10.95667911 12.16468406 14.38882399 16.64459205 20.81265712
 23.796983   26.60494614 28.91695499]","[0.8310279846191406, 0.5014021396636963, 0.5816972255706787, 0.4056839942932129, 1.981565237045288, 1.1651360988616943, 0.19776487350463867, 0.3416101932525635, 1.1096560955047607]"
33,1cls.png,15ls.png,invalid,block,cross,6,7.424299716949463,2.474766572316488,0.8449737991080278,7.063168048858643,[ 7.06316805 16.911273   23.6793921 ],[ 8.96456409 18.76475692 27.34881186],"[1.9013960361480713, 1.8534839153289795, 3.669419765472412]"
34,15cls.png,15ls.png,invalid,da_Vinci,cross,12,2.137300968170166,0.356216828028361,0.15578269989996166,12.47923994064331,[12.47923994 13.51903105 15.08709979 23.64763999 24.39108777 29.19144988],[12.7486999  13.79670286 15.69266987 24.06087995 24.84489489 29.30900192],"[0.26945996284484863, 0.27767181396484375, 0.6055700778961182, 0.4132399559020996, 0.45380711555480957, 0.11755204200744629]"
35,testls.png,1cls.png,local,local_r,uncross,14,7.248161554336548,1.0354516506195068,0.5994041385831242,5.951164245605469,"[ 5.95116425  9.85532594 14.85527015 19.32763314 22.35904121 25.83930707
 28.82327604]","[ 6.59661317 11.56450891 16.38075709 20.29453492 24.15678906 26.19694519
 29.069031  ]","[0.6454489231109619, 1.7091829776763916, 1.525486946105957, 0.9669017791748047, 1.7977478504180908, 0.3576381206512451, 0.24575495719909668]"
36,15ls.png,1cls.png,valid,block,uncross,18,4.369572162628174,0.4855080180697971,0.30881880869853107,6.57521390914917,"[ 6.57521391  7.99892688 10.27896309 11.60753179 13.7031939  18.18330503
 19.99122095 21.9513371  28.67161083]","[ 6.82065582  8.30064011 10.51660991 11.83665013 14.55664182 19.35677099
 20.37298203 22.52487588 29.04504895]","[0.24544191360473633, 0.301713228225708, 0.23764681816101074, 0.22911834716796875, 0.8534479141235352, 1.1734659671783447, 0.3817610740661621, 0.5735387802124023, 0.37343811988830566]"
37,15ls.png,15cls.png,valid,da_Vinci,uncross,18,6.0663838386535645,0.674042648739285,0.44531819207269546,4.6152119636535645,"[ 4.61521196 11.98327398 13.27887797 15.19087625 16.89525914 18.29498124
 22.58320212 23.84695029 26.71113014]","[ 4.79653096 12.12450814 14.50065422 15.70056605 17.29270029 19.66873717
 22.86079788 24.73281908 27.78883314]","[0.181318998336792, 0.1412341594696045, 1.2217762470245361, 0.5096898078918457, 0.39744114875793457, 1.373755931854248, 0.27759575843811035, 0.8858687877655029, 1.0777029991149902]"
38,15ls.png,1cls.png,valid,block,uncross,20,6.280356407165527,0.6280356407165527,0.35186058875823206,3.750983953475952,"[ 3.75098395  6.8310082   9.65487814 12.59904218 14.45486903 18.84720492
 20.02298617 22.071141   23.83108687 26.46329808]","[ 4.58844399  7.38855195  9.94865489 13.06067204 15.10866809 19.1647501
 21.21263385 22.33280492 24.23678803 27.76488709]","[0.8374600410461426, 0.5575437545776367, 0.2937767505645752, 0.46162986755371094, 0.6537990570068359, 0.31754517555236816, 1.1896476745605469, 0.26166391372680664, 0.4057011604309082, 1.301589012145996]"
39,testls.png,1cls.png,local,local_r,uncross,16,12.509101629257202,1.5636377036571503,1.1163991758452172,3.8148269653320312,"[ 3.81482697  4.83090711  8.34281206 11.93488407 16.48711705 18.53492188
 26.83124518 28.95910716]","[ 4.08454919  6.37228608 10.20453024 13.54062104 17.14063716 22.74870205
 27.8368001  30.31679726]","[0.26972222328186035, 1.5413789749145508, 1.8617181777954102, 1.6057369709014893, 0.6535201072692871, 4.213780164718628, 1.0055549144744873, 1.3576900959014893]"
40,1cls.png,1ls.png,invalid,line,cross,22,8.685614585876465,0.7896013259887695,0.6718173025168277,1.6627566814422607,"[ 1.66275668  4.63924193  7.79903889  8.7430079  12.70314598 14.04701066
 17.11110973 18.07911396 19.98305464 24.86339879 28.5516119 ]","[ 1.94074583  5.0285399   8.32470393  9.78062272 13.26077175 14.28472376
 17.1966846  18.31683469 21.50077987 27.10071397 30.13298464]","[0.27798914909362793, 0.3892979621887207, 0.5256650447845459, 1.0376148223876953, 0.5576257705688477, 0.23771309852600098, 0.08557486534118652, 0.23772072792053223, 1.5177252292633057, 2.2373151779174805, 1.5813727378845215]"
