trial,right_eye,left_eye,validity,stim_cnd,disparity,transient_counts,cdt,mdt,dtstd,latency,press_timing,release_timing,key_press_list
1,1cls.png,testls.png,local,local_l,cross,16,10.724550724029541,1.3405688405036926,0.9784054343964025,1.484786033630371,"[ 1.48478603  8.26069093 10.31669879 13.40464997 15.02058291 19.94075489
 22.53314209 28.35706711]","[ 5.034091    8.4581399  11.52231193 14.9623189  16.39438701 20.154495
 23.5865128  29.93066692]","[3.549304962158203, 0.1974489688873291, 1.205613136291504, 1.557668924331665, 1.3738040924072266, 0.21374011039733887, 1.053370714187622, 1.5735998153686523]"
2,15cls.png,15ls.png,invalid,da_Vinci,cross,4,2.538914203643799,1.2694571018218994,1.0559730529785156,16.983160972595215,[16.98316097 20.51126504],[17.19664502 22.83669519],"[0.2134840488433838, 2.325430154800415]"
3,testls.png,1cls.png,local,local_r,uncross,10,5.139284610748291,1.0278569221496583,0.3418142044803257,7.231081962585449,[ 7.23108196  9.79867697 17.96717596 23.78321886 27.99093986],[ 8.65234518 10.62042904 19.42852306 24.44441199 28.76466894],"[1.4212632179260254, 0.8217520713806152, 1.4613471031188965, 0.6611931324005127, 0.7737290859222412]"
4,15ls.png,1cls.png,valid,block,uncross,2,0.429279088973999,0.429279088973999,0.0,18.383358001708984,[18.383358],[18.81263709],[0.429279088973999]
5,1cls.png,1ls.png,invalid,line,cross,14,3.694347381591797,0.527763911655971,0.39825327092539997,7.430998086929321,"[ 7.43099809 10.03881598 13.73501515 15.75117207 18.01497602 20.23910499
 24.43938923]","[ 7.61245894 10.54847002 13.97254014 16.06857109 18.20462894 21.47663784
 25.46051192]","[0.18146085739135742, 0.5096540451049805, 0.23752498626708984, 0.3173990249633789, 0.1896529197692871, 1.2375328540802002, 1.021122694015503]"
6,1ls.png,1cls.png,valid,line,uncross,2,1.373168706893921,1.373168706893921,0.0,25.37574005126953,[25.37574005],[26.74890876],[1.373168706893921]
7,15ls.png,15cls.png,valid,da_Vinci,uncross,0,0.0,0.0,0.0,30.0,[],[],[]
8,1ls.png,1cls.png,valid,line,uncross,8,1.7733428478240967,0.44333571195602417,0.2876561041240052,7.463172197341919,[ 7.4631722  12.86330914 22.7754581  27.47125006],[ 7.95654511 13.07659101 22.94869614 28.36470008],"[0.49337291717529297, 0.21328186988830566, 0.17323803901672363, 0.8934500217437744]"
9,1cls.png,1ls.png,invalid,line,cross,8,7.71779203414917,1.9294480085372925,1.3353965526081686,6.127329111099243,[ 6.12732911 13.30338311 27.03952193 29.36735988],[ 8.820714   17.00473499 27.389081   30.34085608],"[2.693384885787964, 3.7013518810272217, 0.34955906867980957, 0.9734961986541748]"
10,1cls.png,15ls.png,invalid,block,cross,6,1.7548048496246338,0.5849349498748779,0.11330549959179725,5.927084684371948,[ 5.92708468 12.75100684 15.45478678],[ 6.35643172 13.44692469 16.08432674],"[0.42934703826904297, 0.6959178447723389, 0.629539966583252]"
11,1cls.png,15ls.png,invalid,block,cross,8,2.365583658218384,0.591395914554596,0.3133199638937618,8.527041673660278,[ 8.52704167 10.71094775 21.43135786 25.63939881],[ 8.8604579  10.94055605 22.37249994 26.50081587],"[0.333416223526001, 0.22960829734802246, 0.9411420822143555, 0.8614170551300049]"
12,1cls.png,testls.png,local,local_l,cross,16,12.724784851074219,1.5905981063842773,1.1456643486050673,1.3909978866577148,"[ 1.39099789  7.51111293 10.90311694 14.11901379 18.69561577 23.19958091
 25.591362   27.26341295]","[ 5.39670277  8.88481784 12.50080681 15.60488892 21.26889801 23.49298096
 25.86104584 28.38885689]","[4.005704879760742, 1.3737049102783203, 1.5976898670196533, 1.485875129699707, 2.573282241821289, 0.2934000492095947, 0.269683837890625, 1.125443935394287]"
13,15ls.png,15cls.png,valid,da_Vinci,uncross,4,1.3947887420654297,0.6973943710327148,0.5000004768371582,8.35120701789856,[ 8.35120702 24.30347705],[ 8.54860091 25.5008719 ],"[0.19739389419555664, 1.197394847869873]"
14,1cls.png,15ls.png,invalid,block,cross,12,4.20068621635437,0.700114369392395,0.31844039472760677,7.463219404220581,[ 7.4632194   8.91095018 10.73486209 13.4552803  18.19111514 22.27101731],[ 7.63655829  9.44440436 11.87656617 14.47659636 18.89247227 22.9005332 ],"[0.1733388900756836, 0.533454179763794, 1.1417040824890137, 1.0213160514831543, 0.7013571262359619, 0.6295158863067627]"
15,15cls.png,15ls.png,invalid,da_Vinci,cross,4,0.690824031829834,0.345412015914917,0.13200688362121582,8.095124959945679,[ 8.09512496 12.68714023],[ 8.30853009 13.16455913],"[0.21340513229370117, 0.4774188995361328]"
16,1cls.png,1ls.png,invalid,line,cross,10,3.4511542320251465,0.6902308464050293,0.5172275174947064,7.855132102966309,[ 7.8551321  11.67116308 17.86306596 23.58325505 25.91912699],[ 8.13252091 13.29244685 18.02868199 24.16470075 26.72454691],"[0.2773888111114502, 1.621283769607544, 0.16561603546142578, 0.5814456939697266, 0.805419921875]"
17,1cls.png,1ls.png,invalid,line,cross,10,2.827514171600342,0.5655028343200683,0.09482050137285483,3.8388798236846924,[ 3.83887982  7.15914679 12.63135195 16.75088501 20.43111491],[ 4.36444092  7.64449286 13.38060784 17.26065397 20.98869705],"[0.5255610942840576, 0.48534607887268066, 0.749255895614624, 0.5097689628601074, 0.5575821399688721]"
18,1ls.png,1cls.png,valid,line,uncross,8,2.8469223976135254,0.7117305994033813,0.42539979232429176,5.23934268951416,[ 5.23934269 15.08742189 25.11152172 28.63951492],[ 5.89412284 15.26075983 25.7648809  30.00496006],"[0.6547801494598389, 0.1733379364013672, 0.6533591747283936, 1.3654451370239258]"
19,15cls.png,15ls.png,invalid,da_Vinci,cross,8,2.6698310375213623,0.6674577593803406,0.5123619779359802,15.007246017456055,[15.00724602 21.06319499 23.95937705 28.239151  ],[15.67659807 21.36469412 25.46073294 28.43677497],"[0.6693520545959473, 0.3014991283416748, 1.5013558864593506, 0.19762396812438965]"
20,15ls.png,1cls.png,valid,block,uncross,6,1.4805078506469727,0.4935026168823242,0.07076950822694887,21.415411949157715,[21.41541195 26.61525106 29.03109193],[21.8127141  27.18076181 29.54878688],"[0.39730215072631836, 0.5655107498168945, 0.5176949501037598]"
21,1cls.png,testls.png,local,local_l,cross,14,14.43853497505188,2.06264785357884,1.775413730410327,3.7830328941345215,"[ 3.78303289  8.64673996 12.14329195 12.87094307 14.64731598 25.34317493
 28.9191072 ]","[ 6.53252196 10.23640084 12.67648602 13.10852313 20.59673285 27.42886615
 30.21261001]","[2.7494890689849854, 1.589660882949829, 0.5331940650939941, 0.2375800609588623, 5.949416875839233, 2.085691213607788, 1.2935028076171875]"
22,testls.png,1cls.png,local,local_r,uncross,10,5.2675817012786865,1.0535163402557373,0.8198434741547829,5.351209878921509,[ 5.35120988 10.38338184 15.31932187 19.63115883 29.50361776],[ 5.54067469 10.58899879 17.21279478 21.75686574 30.35693789],"[0.18946480751037598, 0.20561695098876953, 1.8934729099273682, 2.125706911087036, 0.8533201217651367]"
23,testls.png,1cls.png,local,local_r,uncross,10,5.851998567581177,1.1703997135162354,0.9260682500580416,8.927264928817749,[ 8.92726493 17.82310581 19.79107666 22.88698697 26.65530491],[11.30864477 17.97266984 21.84480262 23.06076074 27.74885988],"[2.3813798427581787, 0.14956402778625488, 2.0537259578704834, 0.17377376556396484, 1.093554973602295]"
24,1cls.png,15ls.png,invalid,block,cross,8,5.134149074554443,1.2835372686386108,0.4978314773533753,9.039503812789917,[ 9.03950381 15.12724304 18.49487305 24.81531191],[11.14068294 16.22072196 19.25277686 25.99689913],"[2.1011791229248047, 1.0934789180755615, 0.7579038143157959, 1.1815872192382812]"
25,15ls.png,1cls.png,valid,block,uncross,6,2.1923327445983887,0.7307775815327963,0.36268872271214747,13.60740613937378,[13.60740614 16.1112771  16.91115904],[13.90078592 16.82874703 18.09264207],"[0.2933797836303711, 0.7174699306488037, 1.1814830303192139]"
26,1ls.png,1cls.png,valid,line,uncross,8,3.389949321746826,0.8474873304367065,0.43887161536324687,6.783406972885132,[ 6.78340697 11.1831708  13.59106803 29.60763502],[ 7.76455903 11.7648201  15.0847981  29.94105291],"[0.9811520576477051, 0.5816493034362793, 1.493730068206787, 0.3334178924560547]"
27,testls.png,1cls.png,local,local_r,uncross,10,5.333846569061279,1.0667693138122558,0.2930422936676587,4.1748621463775635,[ 4.17486215 11.79923511 15.35102916 22.2474041  28.31130028],[ 5.49501705 13.24456811 16.31659603 22.86069608 29.30080009],"[1.3201549053192139, 1.4453330039978027, 0.965566873550415, 0.6132919788360596, 0.9894998073577881]"
28,15ls.png,1cls.png,valid,block,uncross,4,4.506546974182129,2.2532734870910645,1.151890516281128,10.911334037780762,[10.91133404 23.42381477],[12.01271701 26.82897878],"[1.1013829708099365, 3.4051640033721924]"
29,1ls.png,1cls.png,valid,line,uncross,8,1.5498261451721191,0.3874565362930298,0.12304854941206682,8.615240097045898,[ 8.6152401  17.59125614 19.02301812 22.49520588],[ 8.82849312 18.04466009 19.56462312 22.83677006],"[0.21325302124023438, 0.45340394973754883, 0.5416049957275391, 0.3415641784667969]"
30,15ls.png,15cls.png,valid,da_Vinci,uncross,8,2.589991569519043,0.6474978923797607,0.40231792454787224,13.751276731491089,[13.75127673 15.00687385 21.9992907  28.02339888],[14.02064085 15.50868201 22.49274802 29.34876084],"[0.2693641185760498, 0.5018081665039062, 0.4934573173522949, 1.325361967086792]"
31,15ls.png,1cls.png,valid,block,uncross,2,0.221390962600708,0.221390962600708,0.0,14.319367170333862,[14.31936717],[14.54075813],[0.221390962600708]
32,1cls.png,testls.png,local,local_l,cross,20,8.783551931381226,0.8783551931381226,0.8488001757687852,1.615246057510376,"[ 1.61524606  3.95095587  8.84726691  9.45489597 12.22299409 15.52707005
 16.95916104 21.32755709 25.83916783 28.91936398]","[ 2.14050198  4.26063514  9.37269211  9.52455497 12.68481183 16.01280499
 18.68468189 24.26070595 27.30882287 29.1970191 ]","[0.5252559185028076, 0.3096792697906494, 0.5254251956939697, 0.06965899467468262, 0.46181774139404297, 0.4857349395751953, 1.7255208492279053, 2.9331488609313965, 1.4696550369262695, 0.27765512466430664]"
33,15cls.png,15ls.png,invalid,da_Vinci,cross,8,1.525531530380249,0.38138288259506226,0.2651828817280631,8.903195858001709,[ 8.90319586 16.85563803 25.58351588 28.27932405],[ 9.14061213 17.1249001  25.76491809 29.11677504],"[0.23741626739501953, 0.26926207542419434, 0.18140220642089844, 0.8374509811401367]"
34,15ls.png,15cls.png,valid,da_Vinci,uncross,4,1.306384563446045,0.6531922817230225,0.39987635612487793,12.607280015945435,[12.60728002 22.59954214],[12.86059594 23.65261078],"[0.25331592559814453, 1.0530686378479004]"
35,testls.png,1cls.png,local,local_r,uncross,10,6.018925189971924,1.2037850379943849,0.47875707510606186,7.74340295791626,[ 7.74340296 12.37541986 15.75926805 18.5269711  26.39961505],[ 9.70848989 13.76469922 16.93272805 19.03675199 27.38093305],"[1.9650869369506836, 1.3892793655395508, 1.1734600067138672, 0.5097808837890625, 0.9813179969787598]"
36,1cls.png,testls.png,local,local_l,cross,18,13.210126876831055,1.4677918752034504,0.7710448055887488,1.8876268863677979,"[ 1.88762689  3.79103279  7.43932486 10.57525897 13.18330383 16.79917383
 18.38331079 23.19133186 26.84738207]","[ 3.15671778  6.07676792  9.40477586 11.13284469 15.61273384 16.9249289
 19.20494294 25.27704191 28.51711893]","[1.2690908908843994, 2.2857351303100586, 1.9654510021209717, 0.5575857162475586, 2.4294300079345703, 0.12575507164001465, 0.8216321468353271, 2.085710048675537, 1.6697368621826172]"
37,15cls.png,15ls.png,invalid,da_Vinci,cross,20,6.799705266952515,0.6799705266952515,0.5641159149457746,6.958971977233887,"[ 6.95897198  7.3906951   8.86282802 12.11887884 17.9671669  19.16749501
 21.19119096 22.5030539  25.823277   29.16719198]","[ 7.34049296  7.444484    9.63647199 13.74861193 18.38868499 19.44468498
 21.4767499  22.90075898 27.65265918 29.91685605]","[0.38152098655700684, 0.05378890037536621, 0.773643970489502, 1.6297330856323242, 0.42151808738708496, 0.2771899700164795, 0.28555893898010254, 0.397705078125, 1.8293821811676025, 0.7496640682220459]"
38,1cls.png,1ls.png,invalid,line,cross,10,6.499320983886719,1.2998641967773437,0.5658452416745836,6.503124952316284,[ 6.50312495 14.96747994 16.55896401 20.75938702 28.79955792],[ 8.3085618  15.25272799 18.34076309 21.86881304 30.31696892],"[1.8054368495941162, 0.2852480411529541, 1.781799077987671, 1.1094260215759277, 1.5174109935760498]"
39,15ls.png,15cls.png,valid,da_Vinci,uncross,2,0.1892390251159668,0.1892390251159668,0.0,21.1755850315094,[21.17558503],[21.36482406],[0.1892390251159668]
40,1cls.png,15ls.png,invalid,block,cross,12,6.985597372055054,1.1642662286758423,0.7421937200419101,7.975064039230347,[ 7.97506404 10.758811   16.71910524 22.52701902 25.23900414 29.10312796],[ 8.98038888 11.9164331  19.42055583 23.25246191 26.31718898 29.42070007],"[1.0053248405456543, 1.1576220989227295, 2.7014505863189697, 0.7254428863525391, 1.0781848430633545, 0.31757211685180664]"
